"Participant","RT","ISI","Response_Type","Trial_Score","Total_Score","Threshold","Valid_Trial","Valid_Trial_Count","Stimulus_Size","Stimulus_X","Stimulus_Y","Stimulus_Orientation"
"S049",0.457961358642578,2.07413864135742,"slow",0,0,0.375,TRUE,1,0.390776842832565,664.144714355469,-216.153182983398,0.649448037147522
"S049",0.339147117669678,2.64405298233032,"fast",175,175,0.457961358642578,TRUE,2,0.585655808448792,-426.914154052734,-226.700012207031,0.961261749267578
"S049",0.339891133935547,2.19340896606445,"fast",170,345,0.398554238156128,TRUE,3,0.439218163490295,-510.301147460938,-322.112609863281,0.743144869804382
"S049",0.29891931204071,1.66748058795929,"fast",171,516,0.339891133935547,TRUE,4,0.478153228759766,-797.176025390625,-225.509124755859,-0.342020034790039
"S049",0.255075961820984,1.66152393817902,"fast",180,696,0.339519125802612,TRUE,5,0.649842202663422,543.544921875,-332.039398193359,-0.968147754669189
"S049",0.326717166845703,2.7730827331543,"fast",166,862,0.339147117669678,TRUE,6,0.669081270694733,-750.005981445312,-20.487024307251,0.580702841281891
"S049",0.329781184005737,1.52001881599426,"fast",165,1027,0.33293214225769,TRUE,7,0.652310609817505,500.807525634766,-118.450668334961,0.587785184383392
"S049",0.270326536505127,2.56287336349487,"fast",176,1203,0.329781184005737,TRUE,8,0.492826700210571,776.187316894531,-388.851104736328,0.997564077377319
"S049",0.271416829299927,1.71178317070007,"fast",176,1379,0.32824917542572,TRUE,9,0.373175472021103,-336.224884033203,139.866180419922,0.182235717773438
"S049",-1.58195710443726,3.33185720443726,"early",-100,1279,0.326717166845703,FALSE,9,0,0,0,0
"S049",0.308759658241272,1.14114034175873,"fast",168,1447,0.326717166845703,TRUE,10,0.656120955944061,-502.830902099609,-17.7791576385498,-0.777146100997925
"S049",0.270081109237671,2.84661889076233,"fast",175,1622,0.317738412543487,TRUE,11,0.48782867193222,658.862670898438,-131.376220703125,0.052335761487484
"S049",0.307218496704102,3.9926815032959,"fast",166,1788,0.308759658241272,TRUE,12,0.565162599086761,-579.281616210938,-140.674560546875,0.453990757465363
"S049",0.286091958618164,1.53050804138184,"fast",170,1958,0.307989077472687,TRUE,13,0.54220050573349,-585.440063476562,-242.663040161133,-0.906307697296143
"S049",0.404069100952148,1.91253089904785,"slow",0,1958,0.307218496704102,TRUE,14,0.477680683135986,717.9130859375,90.0767440795898,0.366501092910767
"S049",0.349508582687378,1.86709141731262,"slow",0,1958,0.307989077472687,TRUE,15,0.36923423409462,335.70751953125,-155.211074829102,0.173648446798325
"S049",0.321314303779602,1.6285856962204,"slow",0,1958,0.308759658241272,TRUE,16,0.316709935665131,313.686004638672,-166.249572753906,-0.725374639034271
"S049",0.318731706047058,1.08116829395294,"slow",0,1958,0.315036981010437,TRUE,17,0.618063628673553,628.350036621094,-141.340377807617,0.983254849910736
"S049",0.287104994528198,3.8794949054718,"fast",171,2129,0.318731706047058,TRUE,18,0.399499654769897,374.440612792969,-217.720520019531,0.79863578081131
"S049",0.336813998222351,1.11318600177765,"slow",0,2129,0.313745682144165,TRUE,19,0.682661831378937,-606.360778808594,-308.268890380859,-0.923879683017731
"S049",0.271098603494262,2.94580149650574,"fast",175,2304,0.318731706047058,TRUE,20,0.324102878570557,-452.976501464844,192.046585083008,-3.27825546264648e-07
"S049",0.291415537261963,2.89198446273804,"fast",170,2474,0.313745682144165,TRUE,21,0.539591073989868,586.205810546875,-208.089538574219,0.438371419906616
"S049",0.330986656515503,3.2357132434845,"slow",0,2474,0.308759658241272,TRUE,22,0.563275933265686,630.9306640625,-44.9025459289551,-0.782607972621918
"S049",0.286634155654907,3.27976584434509,"fast",171,2645,0.313745682144165,TRUE,23,0.443523645401001,767.277465820312,-306.977600097656,0.573576211929321
"S049",0.349631706237793,2.61636829376221,"slow",0,0,0.308759658241272,TRUE,24,0.416677325963974,782.688720703125,113.408134460449,-0.42261791229248
"S049",0.343803545379639,2.67259645462036,"slow",0,0,0.313745682144165,TRUE,25,0.419404447078705,559.418395996094,-400.181488037109,0.275637000799179
"S049",0.637777431488037,2.24522256851196,"missed",0,0,0.318731706047058,FALSE,25,0.374461948871613,572.564880371094,78.96630859375,0.594822525978088
"S049",0.641825646591187,3.87487435340881,"missed",0,0,0.32002300491333,FALSE,25,0.375666946172714,-478.719757080078,-41.9628067016602,-0.814055025577545
"S049",0.310161656134033,1.55593824386597,"fast",167,167,0.321314303779602,TRUE,26,0.602723658084869,579.653564453125,-168.28938293457,-0.9508296251297
"S049",0.266957736914062,3.76634216308594,"fast",176,343,0.32002300491333,TRUE,27,0.309565544128418,-290.597076416016,-252.964630126953,-0.113931924104691
"S049",0.319595646858215,1.13040435314178,"slow",0,343,0.318731706047058,TRUE,28,0.536437749862671,-467.879333496094,-366.24853515625,0.98493492603302
"S049",0.262807654135132,3.52079224586487,"fast",176,519,0.319163676452637,TRUE,29,0.394996076822281,-713.895812988281,131.756927490234,-0.077727846801281
"S049",0.251863119451904,2.2978367805481,"fast",179,698,0.318731706047058,TRUE,30,0.636890232563019,730.98193359375,-352.711944580078,-0.258110463619232
"S049",0.289908266067505,2.5600917339325,"fast",170,868,0.314446681090546,TRUE,31,0.662757575511932,-556.327453613281,-263.775329589844,-0.930686175823212
"S049",0.254246641104126,1.47905325889587,"fast",177,1045,0.310161656134033,TRUE,32,0.467594981193542,743.067626953125,112.071243286133,-0.930686175823212
"S049",0.274119064657592,3.57558083534241,"fast",173,1218,0.309460657187652,TRUE,33,0.313807427883148,-734.525756835938,146.721542358398,-0.0443521440029144
"S049",0.323031747381592,3.47686815261841,"slow",0,1218,0.308759658241272,TRUE,34,0.662787139415741,372.282745361328,-202.809631347656,0.923598647117615
"S049",0.278615907287597,2.0549840927124,"fast",172,1390,0.309460657187652,TRUE,35,0.63573545217514,622.1484375,-225.559722900391,0.9565190076828
"S049",0.301099014282226,2.89890098571777,"fast",167,1557,0.308759658241272,TRUE,36,0.527071595191956,406.300567626953,-169.498321533203,0.910265147686005
"S049",0.434752071325684,1.24804782867432,"slow",0,1557,0.307989077472687,TRUE,37,0.556245625019073,354.322143554688,35.5340957641602,0.616239309310913
"S049",0.234268539755249,3.29893136024475,"fast",181,1738,0.308759658241272,TRUE,38,0.481018662452698,-404.280090332031,-220.086959838867,-0.9999680519104
"S049",0.29583188852539,3.08736801147461,"fast",168,1906,0.307989077472687,TRUE,39,0.324426472187042,757.950073242188,-346.029815673828,0.948090672492981
"S049",0.305872624723816,1.17732727527618,"fast",166,2072,0.307218496704102,TRUE,40,0.51686304807663,-710.797607421875,-304.823974609375,0.970472931861877
"S049",0.255632234899902,2.2605676651001,"fast",177,2249,0.306545560713959,TRUE,41,0.355002701282501,-837.090393066406,-251.6259765625,0.500635147094727
"S049",-1.49327661437988,2.17657661437988,"early",-100,2149,0.305872624723816,FALSE,41,0,0,0,0
"S049",0.361134162902832,1.05486583709717,"slow",0,2149,0.305872624723816,TRUE,42,0.662962138652802,-757.892883300781,-97.8161773681641,-0.608179330825806
"S049",0.298398455865478,3.70100164413452,"fast",167,2316,0.306545560713959,TRUE,43,0.30652904510498,-857.464599609375,-72.980339050293,-0.808585643768311
"S049",0.275440612792969,1.69055938720703,"fast",172,2488,0.305872624723816,TRUE,44,0.635789453983307,570.590393066406,-274.328460693359,-0.993654608726501
"S049",0.301547560119629,1.81535243988037,"fast",166,2654,0.303485819503021,TRUE,45,0.487592875957489,383.626251220703,87.5137786865234,-0.824541449546814
"S049",0.28459678712616,1.29870331287384,"fast",170,2824,0.301547560119629,TRUE,46,0.536489903926849,504.533508300781,39.876335144043,0.155709892511368
"S049",0.273106150054932,1.42629384994507,"fast",172,2996,0.301323287200927,TRUE,47,0.355899631977081,-336.040374755859,-346.795593261719,0.842997074127197
"S049",0.288513711929321,1.77798628807068,"fast",169,3165,0.301099014282226,TRUE,48,0.62530916929245,-679.402465820312,-322.823120117188,0.131253361701965
"S049",0.309518072836304,1.2230818271637,"slow",0,0,0.300009163161468,TRUE,49,0.302827060222626,-380.772521972656,70.0430450439453,-0.983388364315033
"S049",0.413502359771728,3.86939764022827,"slow",0,0,0.301099014282226,TRUE,50,0.66152685880661,-463.629730224609,-204.749862670898,-0.0791904032230377
"S049",0.262982932608032,3.05341696739197,"fast",175,175,0.301323287200927,TRUE,51,0.49349570274353,409.804504394531,35.2193298339844,0.97011798620224
"S049",0.304202893829346,1.67939710617065,"slow",0,175,0.301099014282226,TRUE,52,0.312983632087708,660.576232910156,-246.326309204102,0.99134886264801
"S049",0.334392245809936,1.29900765419006,"slow",0,175,0.301323287200927,TRUE,53,0.500277876853943,402.738800048828,39.2297668457031,-0.190088897943497
"S049",0.326672064399719,1.18992793560028,"slow",0,175,0.301547560119629,TRUE,54,0.62239408493042,458.949066162109,-40.1589813232422,-0.266531497240067
"S049",0.318530672399902,3.2146692276001,"slow",0,175,0.302875226974487,TRUE,55,0.441524118185043,-465.707092285156,-293.886749267578,-0.391406118869781
"S049",0.300692735345459,2.98260736465454,"fast",167,342,0.304202893829346,TRUE,56,0.429266065359116,-536.717834472656,-380.608306884766,0.439030289649963
"S049",0.265856149728394,3.56734395027161,"fast",174,516,0.302875226974487,TRUE,57,0.64192920923233,647.722900390625,-309.709930419922,-0.357683062553406
"S049",0.342436257362366,1.02356374263763,"slow",0,516,0.301547560119629,TRUE,58,0.484176635742188,758.70458984375,-52.9196548461914,-0.737772822380066
"S049",0.361788277053833,3.28761172294617,"slow",0,516,0.302875226974487,TRUE,59,0.369908094406128,-682.943603515625,157.049026489258,0.349520087242126
"S049",0.296684099142456,2.33661580085754,"fast",168,684,0.304202893829346,TRUE,60,0.660817325115204,-635.394470214844,-220.105484008789,0.978299915790558
"S049",0.349541715621948,2.96695828437805,"slow",0,684,0.302875226974487,TRUE,61,0.388185113668442,-382.682891845703,-87.2970199584961,-0.736781477928162
"S049",0.239024654443359,3.94467544555664,"fast",180,864,0.304202893829346,TRUE,62,0.648362576961517,-638.928405761719,-217.220947265625,0.172925561666489
"S049",0.296998204858398,2.7528018951416,"fast",167,1031,0.302875226974487,TRUE,63,0.591120064258575,694.843872070312,-274.416351318359,0.755190789699554
"S049",0.31066241645813,2.60583758354187,"slow",0,1031,0.301547560119629,TRUE,64,0.512913584709167,405.803497314453,-9.74015045166016,-0.628749966621399
"S049",0.359862628555298,1.8732373714447,"slow",0,1031,0.302875226974487,TRUE,65,0.679273188114166,491.50146484375,-284.5712890625,-0.567010879516602
"S049",0.230279956491089,3.40302014350891,"fast",182,1213,0.304202893829346,TRUE,66,0.580279111862183,-475.896636962891,-174.451599121094,0.608179092407227
"S049",0.316101195962524,2.38419890403748,"slow",0,1213,0.302875226974487,TRUE,67,0.603826940059662,780.774963378906,-145.77473449707,0.995466291904449
"S049",0.246401143972778,3.63689875602722,"fast",178,1391,0.304202893829346,TRUE,68,0.434327095746994,-382.075378417969,101.997894287109,-0.56580126285553
"S049",0.251276252420044,1.88152384757996,"fast",177,1568,0.302875226974487,TRUE,69,0.471859753131866,-528.3876953125,-194.571258544922,-0.700385630130768
"S049",0.256665990502929,3.92613410949707,"fast",176,1744,0.301547560119629,TRUE,70,0.619043052196503,657.587768554688,-112.792999267578,-0.700385630130768
"S049",0.30661216073761,1.67658793926239,"slow",0,1744,0.301323287200927,TRUE,71,0.646453678607941,476.766052246094,-172.202514648438,-0.293073564767838
"S049",0.352782767105102,3.9300172328949,"slow",0,1744,0.301547560119629,TRUE,72,0.683124482631683,-484.889251708984,-245.700149536133,0.967963576316833
"S049",0.254312460327148,2.04558753967285,"fast",177,1921,0.302875226974487,TRUE,73,0.506085634231567,515.742126464844,-249.252822875977,0.485451370477676
"S049",-1.96542221303711,2.86532211303711,"early",-100,1821,0.301547560119629,FALSE,73,0,0,0,0
"S049",0.282830708830261,1.25036919116974,"fast",170,1991,0.301547560119629,TRUE,74,0.36954528093338,-446.257263183594,83.5691680908203,-0.879167079925537
"S049",0.362802854156494,1.42029714584351,"slow",0,1991,0.301323287200927,TRUE,75,0.458162486553192,679.697570800781,-201.524185180664,0.999015986919403
"S049",0.260336859703064,1.12266314029694,"fast",175,2166,0.301547560119629,TRUE,76,0.437674850225449,-616.136901855469,-98.1663970947266,0.743635714054108
"S049",0.266147827584839,1.28345227241516,"fast",174,2340,0.301323287200927,TRUE,77,0.491479098796844,-786.644775390625,-257.726501464844,-0.833480536937714
"S049",0.298664362008667,1.70103573799133,"fast",167,2507,0.301099014282226,TRUE,78,0.584772348403931,-666.482666015625,-260.125061035156,-0.00946033094078302
"S049",0.307851263046265,1.87564873695374,"slow",0,2507,0.300895874813843,TRUE,79,0.31609058380127,-674.303039550781,-275.247619628906,0.818730890750885
"S049",0.343776931436157,1.00602316856384,"slow",0,2507,0.301099014282226,TRUE,80,0.384688049554825,677.328979492188,134.565780639648,-0.232731610536575
"S049",-0.803232145309448,2.35323214530945,"early",-100,2407,0.301323287200927,FALSE,80,0,0,0,0
"S049",0.371557638931274,2.22874236106873,"slow",0,2407,0.301323287200927,TRUE,81,0.436185568571091,-800.1826171875,-198.685455322266,-0.476513624191284
"S049",0.349077951049805,3.5675220489502,"slow",0,2407,0.301547560119629,TRUE,82,0.516978144645691,779.430053710938,-259.048645019531,-0.0617812015116215
"S049",0.273360561425781,3.74333953857422,"fast",172,2579,0.302875226974487,TRUE,83,0.649464070796967,-536.058349609375,-174.18620300293,0.98640650510788
"S049",0.376447432844544,1.65675246715546,"slow",0,2579,0.301547560119629,TRUE,84,0.504138231277466,-562.764831542969,-378.928131103516,-0.38200506567955
"S049",0.313480518014526,2.21931958198547,"slow",0,2579,0.302875226974487,TRUE,85,0.363468289375305,-387.600036621094,17.9814224243164,-0.772091329097748
"S049",0.3563729763031,2.2936270236969,"slow",0,2579,0.304202893829346,TRUE,86,0.483503580093384,-562.830200195312,-33.3840408325195,-0.208629637956619
"S049",0.324337220191955,1.27566277980804,"slow",0,2579,0.305037759276581,TRUE,87,0.57193398475647,749.466613769531,-263.361999511719,0.865658104419708
"S049",0.259726957702636,3.33967304229736,"fast",176,2755,0.305872624723816,TRUE,88,0.502618908882141,-750.635620117188,-106.087005615234,-0.724868834018707
"S049",0.247423337991333,2.36927676200867,"fast",178,2933,0.305037759276581,TRUE,89,0.388933330774307,-789.473754882812,-148.404327392578,-0.431173622608185
"S049",0.034180330331421,2.83251976966858,"fast",200,3133,0.304202893829346,TRUE,90,0.547392010688782,-775.225219726562,-81.5576324462891,0.138446062803268
"S049",-1.11168983721008,3.89408993721008,"early",-100,3033,0.302875226974487,FALSE,90,0,0,0,0
"S049",0.294409595544433,3.77179050445557,"fast",168,3201,0.302875226974487,TRUE,91,0.586016893386841,521.999755859375,-32.5354118347168,0.454644501209259
"S049",0.331725215911865,2.01827478408813,"slow",0,3201,0.301547560119629,TRUE,92,0.370987981557846,821.488830566406,-242.158004760742,-0.787558555603027
"S049",0.285996591186523,3.53060340881348,"fast",170,3371,0.302875226974487,TRUE,93,0.696395814418793,544.225769042969,-228.700668334961,0.558584094047546
"S049",0.309944102532959,3.38995599746704,"slow",0,3371,0.301547560119629,TRUE,94,0.427088469266891,683.476318359375,123.272468566895,-0.398075640201569
"S049",0.304325275802612,1.69607472419739,"slow",0,3371,0.302875226974487,TRUE,95,0.498045206069946,-560.721923828125,-52.4680404663086,-0.431173771619797
"S049",0.308269588851929,3.64163041114807,"slow",0,3371,0.304202893829346,TRUE,96,0.601941347122192,-485.768463134766,-222.280731201172,0.956089854240417
"S049",0.407269150488281,3.75933074951172,"slow",0,3371,0.304264084815979,TRUE,97,0.344817101955414,733.706726074219,-157.174011230469,-0.78215092420578
"S049",0.278490698297119,3.17160940170288,"fast",171,3542,0.304325275802612,TRUE,98,0.30761057138443,-543.772827148438,-156.664932250977,-0.0356333255767822
"S049",0.332200387954712,2.03429961204529,"slow",0,3542,0.304264084815979,TRUE,99,0.554135203361511,-703.870910644531,-135.749954223633,0.78846263885498
"S049",0.296092844009399,1.3039071559906,"fast",168,3710,0.304325275802612,TRUE,100,0.54254412651062,-730.737609863281,-312.888305664062,0.676131427288055
"S049",0.346205154418945,1.61979484558105,"slow",0,3710,0.304264084815979,TRUE,101,0.456786513328552,-633.035400390625,-383.46435546875,-0.615082740783691
"S049",0.260268072128296,3.1062319278717,"fast",175,3885,0.304325275802612,TRUE,102,0.683667480945587,603.435485839844,-19.4133281707764,-0.663169801235199
"S049",0.32778263092041,1.67221736907959,"slow",0,3885,0.304264084815979,TRUE,103,0.699855029582977,-499.150146484375,-226.422378540039,-0.38336169719696
"S049",0.29993553041687,2.63366436958313,"fast",167,4052,0.304325275802612,TRUE,104,0.620758295059204,632.873229980469,-126.438400268555,0.669676184654236
"S049",0.326549745504761,2.45675015449524,"slow",0,4052,0.304264084815979,TRUE,105,0.567315340042114,775.497680664062,-15.1656532287598,-0.648889422416687
"S049",0.254718941061401,3.8284809589386,"fast",177,4229,0.304325275802612,TRUE,106,0.510003209114075,-787.825622558594,-216.239486694336,-0.990165650844574
"S049",0.311648849050903,2.4542510509491,"slow",0,4229,0.304264084815979,TRUE,107,0.679867327213287,-504.596374511719,-146.361587524414,0.0516025125980377
"S049",0.325761216790772,2.44053888320923,"slow",0,4229,0.304325275802612,TRUE,108,0.44678795337677,692.988952636719,121.414886474609,0.978300034999847
"S049",0.3027449050354,3.2136549949646,"fast",166,4395,0.305098950263214,TRUE,109,0.650207459926605,-682.533630371094,-126.337173461914,0.367184460163116
"S049",0.333451639230347,3.28274846076965,"slow",0,4395,0.304325275802612,TRUE,110,0.422327250242233,-380.059356689453,-254.571411132812,-0.999999761581421
"S049",0.312409980773926,2.07059001922607,"slow",0,4395,0.305098950263214,TRUE,111,0.476097226142883,-687.526611328125,-104.464416503906,0.992456376552582
"S049",0.336304917907715,1.84679508209229,"slow",0,4395,0.305872624723816,TRUE,112,0.510527491569519,643.94921875,-380.652160644531,0.999080002307892
"S049",0.346597532272339,3.26990246772766,"slow",0,4395,0.306242392730713,TRUE,113,0.696810066699982,467.262451171875,-229.081665039062,-0.484167098999023
"S049",0.296379445648193,3.01972055435181,"fast",168,4563,0.30661216073761,TRUE,114,0.50294691324234,-416.44775390625,45.5901107788086,-0.131254523992538
"S049",0.322715460395813,1.39388453960419,"slow",0,4563,0.306242392730713,TRUE,115,0.321689546108246,-371.098693847656,64.495002746582,0.737773478031158
"S049",0.252119068145752,2.01438093185425,"fast",177,4740,0.30661216073761,TRUE,116,0.579630613327026,-595.878540039062,-182.803253173828,-0.967963457107544
"S049",0.267390632629394,1.63260936737061,"fast",174,4914,0.306242392730713,TRUE,117,0.524906158447266,408.705352783203,-359.968536376953,0.51440817117691
"S049",0.328808627755737,1.85449147224426,"slow",0,4914,0.305872624723816,TRUE,118,0.332036793231964,784.056396484375,-62.3557510375977,0.819573283195496
"S049",0.294075294494629,2.48942470550537,"fast",168,5082,0.306242392730713,TRUE,119,0.339833199977875,798.008117675781,-377.773773193359,-0.687821507453918
"S049",0.395904995727539,1.52089500427246,"slow",0,5082,0.305872624723816,TRUE,120,0.50884485244751,510.137512207031,-121.815559387207,-0.847658574581146
"S049",0.388785618154907,2.29441428184509,"slow",0,5082,0.306242392730713,TRUE,121,0.449186325073242,707.074462890625,-33.7669067382812,-0.0269113481044769
"S049",0.272134636633301,2.3114652633667,"fast",173,5255,0.30661216073761,TRUE,122,0.626174211502075,-768.41796875,-331.657531738281,0.300005078315735
"S068",0.516079242324829,1.93402075767517,"slow",0,0,0.375,TRUE,1,0.524658799171448,420.480285644531,-263.886596679688,0.207911610603333
"S068",0.301605658721924,3.56359434127808,"fast",182,182,0.516079242324829,TRUE,2,0.658004343509674,567.155151367188,-129.442489624023,-0.32556825876236
"S068",0.28682961845398,3.87967038154602,"fast",179,361,0.408842450523376,TRUE,3,0.542412221431732,458.200347900391,-202.237091064453,-0.594822704792023
"S068",0.402581125450134,1.71361887454987,"slow",0,361,0.301605658721924,TRUE,4,0.390843600034714,680.601013183594,-85.6805877685547,-0.275637179613113
"S068",0.282493612098694,1.36680638790131,"fast",176,537,0.352093392086029,TRUE,5,0.658867657184601,-431.759216308594,1.26128768920898,0.515038251876831
"S068",0.328085668563842,3.95491433143616,"slow",0,537,0.301605658721924,TRUE,6,0.446570456027985,-391.91650390625,153.036926269531,0.788010895252228
"S068",0.305460534667969,3.76013946533203,"fast",167,704,0.314845663642883,TRUE,7,0.545466721057892,-543.847473144531,-254.7431640625,0.923879683017731
"S068",0.336304071044922,1.99629592895508,"slow",0,704,0.305460534667969,TRUE,8,0.412250161170959,623.184326171875,-109.896415710449,-0.414693474769592
"S068",0.362254296302795,1.2862457036972,"slow",0,704,0.316773101615905,TRUE,9,0.477359592914581,-625.636596679688,-288.836334228516,-0.77714616060257
"S068",0.387959887313842,3.72884011268616,"slow",0,704,0.328085668563842,TRUE,10,0.563693404197693,537.182373046875,-356.988464355469,-0.594822585582733
"S068",-0.930592576599121,2.79649257659912,"early",-100,604,0.332194869804382,FALSE,10,0,0,0,0
"S068",0.318351239395141,2.94834876060486,"fast",167,771,0.332194869804382,TRUE,11,0.491765379905701,-400.009307861328,-64.3855361938477,-0.477158486843109
"S068",0.318735125732422,3.18196487426758,"fast",166,937,0.328085668563842,TRUE,12,0.493381381034851,-687.849853515625,-259.3994140625,-0.35020712018013
"S068",0.339678976249695,1.64252102375031,"slow",0,937,0.323410397148132,TRUE,13,0.692211329936981,629.895935058594,-350.282531738281,0.224951356649399
"S068",0.298642562866211,2.20035743713379,"fast",170,1107,0.328085668563842,TRUE,14,0.436710923910141,-770.992065429688,-94.849006652832,0.99619472026825
"S068",0.267729653167724,3.59857034683228,"fast",176,1283,0.323410397148132,TRUE,15,0.530485332012177,439.417694091797,-101.616310119629,-0.991444945335388
"S068",0.323954758453369,2.57584524154663,"slow",0,1283,0.318735125732422,TRUE,16,0.557836651802063,-419.537536621094,-195.535186767578,-0.601814925670624
"S068",0.310240232467651,3.93925976753235,"fast",167,1450,0.321344942092895,TRUE,17,0.577390074729919,587.720947265625,12.4957427978516,0.615661382675171
"S068",0.306628784561157,2.86027121543884,"fast",167,1617,0.318735125732422,TRUE,18,0.339175403118134,609.556274414062,90.7463912963867,-0.930417537689209
"S068",0.296223941421509,3.68687605857849,"fast",169,1786,0.318543182563781,TRUE,19,0.345059990882874,-620.190795898438,-333.942657470703,0.70710688829422
"S068",0.276095100784302,3.0403048992157,"fast",174,1960,0.318351239395141,TRUE,20,0.573745548725128,581.542602539062,-162.577102661133,0.894934415817261
"S068",0.350277369689941,1.96542263031006,"slow",0,1960,0.314295735931396,TRUE,21,0.403784960508347,-664.723815917969,22.9343414306641,0.430511057376862
"S068",0.322489823150635,2.24381017684937,"slow",0,1960,0.318351239395141,TRUE,22,0.634182631969452,-650.202453613281,-147.790969848633,-0.325568199157715
"S068",0.375165995025635,1.59073400497437,"slow",0,1960,0.318543182563781,TRUE,23,0.341920912265778,-720.992553710938,-5.97186279296875,-0.484809547662735
"S068",0.0820440406799317,2.86745595932007,"fast",200,2160,0.318735125732422,TRUE,24,0.37614369392395,472.246368408203,-341.361846923828,0.930417597293854
"S068",0.308887852478027,3.30741214752197,"fast",167,2327,0.318543182563781,TRUE,25,0.312691569328308,695.662353515625,-25.2246398925781,-0.974370002746582
"S068",0.478894453048706,1.43860554695129,"slow",0,2327,0.318351239395141,TRUE,26,0.489925563335419,-660.833740234375,69.5797271728516,-0.948323607444763
"S068",0.250951011657715,2.23204898834229,"fast",179,2506,0.318543182563781,TRUE,27,0.517449796199799,-637.679809570312,69.4829559326172,-0.760405898094177
"S068",0.288341059875488,2.26185894012451,"fast",171,171,0.318351239395141,TRUE,28,0.609698534011841,441.526489257812,-286.526214599609,0.333806991577148
"S068",0.370778799057007,1.87922120094299,"slow",0,171,0.314295735931396,TRUE,29,0.33859783411026,-499.340393066406,12.5011901855469,0.993571877479553
"S068",0.288993046188355,3.17840695381165,"fast",171,342,0.318351239395141,TRUE,30,0.41259703040123,-414.967895507812,-353.627380371094,0.990268111228943
"S068",0.297446071624756,2.30205392837524,"fast",169,511,0.314295735931396,TRUE,31,0.652358829975128,-435.024963378906,-121.668487548828,-0.69465845823288
"S068",0.297046008682251,1.68605399131775,"fast",168,679,0.310240232467651,TRUE,32,0.338135898113251,328.164459228516,-209.000549316406,-0.930417656898499
"S068",0.258624858474731,1.49097514152527,"fast",176,855,0.309564042472839,TRUE,33,0.517337501049042,-427.176391601562,26.8057174682617,-0.515038013458252
"S068",0.308870334243774,2.89072966575623,"fast",166,1021,0.308887852478027,TRUE,34,0.689798295497894,602.383544921875,-303.204803466797,0.94264143705368
"S068",-0.0319806388854982,2.3315806388855,"early",-100,921,0.308879093360901,FALSE,34,0,0,0,0
"S068",0.298545944595337,1.98385405540466,"fast",168,1089,0.308879093360901,TRUE,35,0.458707809448242,-336.041717529297,-213.996139526367,-0.325568228960037
"S068",0.296552999877929,2.21934700012207,"fast",168,1257,0.308870334243774,TRUE,36,0.523512840270996,414.92138671875,50.6636238098145,-0.515038132667542
"S068",0.290861222839355,1.82423877716064,"fast",169,1426,0.307749559402466,TRUE,37,0.306079745292664,661.582153320312,54.3355865478516,0.453990548849106
"S068",0.308395272064209,1.52490472793579,"slow",0,1426,0.306628784561157,TRUE,38,0.332311987876892,-358.234039306641,148.034439086914,-0.18223562836647
"S068",-0.0829480533599853,2.53244805335999,"early",-100,1326,0.307512028312683,FALSE,38,0,0,0,0
"S068",0.267357918167114,2.44904208183289,"fast",174,1500,0.307512028312683,TRUE,39,0.30028235912323,-432.700439453125,230.978912353516,-0.870355784893036
"S068",0.312228339004517,2.82057166099548,"slow",0,1500,0.306628784561157,TRUE,40,0.603154599666595,-548.926147460938,-388.498016357422,-0.147809356451035
"S068",0.268125791168213,2.68147420883179,"fast",174,1674,0.307512028312683,TRUE,41,0.587893784046173,-676.878967285156,-247.814743041992,0.398749113082886
"S068",0.289842778396606,2.22635722160339,"fast",169,1843,0.306628784561157,TRUE,42,0.456154108047485,633.896362304688,-414.080047607422,0.909961342811584
"S068",0.317903416442871,2.31489658355713,"slow",0,1843,0.306044659614563,TRUE,43,0.542981088161469,521.273193359375,-35.6070175170898,0.968147695064545
"S068",0.270063752746582,2.52953624725342,"fast",174,2017,0.306628784561157,TRUE,44,0.505589246749878,438.348815917969,-20.7872314453125,0.995396256446838
"S068",0.258535499191284,2.79106450080872,"fast",176,2193,0.306044659614563,TRUE,45,0.469388127326965,-438.019195556641,-171.117294311523,0.833885788917542
"S068",0.286482081222534,3.91331791877747,"fast",170,2363,0.305460534667969,TRUE,46,0.569339394569397,-469.755584716797,-277.377593994141,0.250379860401154
"S068",0.359772469329834,1.85702753067017,"slow",0,2363,0.303533096694946,TRUE,47,0.613849878311157,-412.918548583984,-128.339172363281,-0.961261749267578
"S068",0.288756001281738,3.62654399871826,"fast",169,2532,0.305460534667969,TRUE,48,0.588073015213013,-552.798278808594,-24.6822624206543,-0.182235464453697
"S068",0.381076838684082,1.71862316131592,"slow",0,2532,0.303533096694946,TRUE,49,0.506195068359375,-408.186584472656,-42.3972320556641,0.983254909515381
"S068",0.292888381195068,3.75681161880493,"fast",168,2700,0.305460534667969,TRUE,50,0.66056364774704,-713.282470703125,-366.079223632812,0.622514665126801
"S068",0.345520288085937,2.15357971191406,"slow",0,2700,0.303533096694946,TRUE,51,0.445254325866699,391.691223144531,-260.972442626953,-0.927183926105499
"S068",0.296234098052978,2.08686590194702,"fast",168,2868,0.305460534667969,TRUE,52,0.430326670408249,384.646057128906,-152.668060302734,0.968147575855255
"S068",0.320371309280395,2.3956286907196,"slow",0,2868,0.303533096694946,TRUE,53,0.481756329536438,352.62646484375,-225.932250976562,-0.798635423183441
"S068",0.283055074691772,1.99994492530823,"fast",171,3039,0.305460534667969,TRUE,54,0.581843495368958,-491.838256835938,-16.8249969482422,-0.681998550891876
"S068",0.351964587020874,1.68183541297913,"slow",0,0,0.303533096694946,TRUE,55,0.425471901893616,515.441711425781,-406.288116455078,0.984807789325714
"S068",0.296006749725342,2.47009325027466,"fast",168,168,0.305460534667969,TRUE,56,0.671029984951019,708.065612792969,-305.822235107422,-0.615661382675171
"S068",0.350021691894531,1.35057830810547,"slow",0,168,0.303533096694946,TRUE,57,0.614579677581787,-484.569793701172,-301.989776611328,0.061048299074173
"S068",0.343252675819397,1.2895473241806,"slow",0,168,0.305460534667969,TRUE,58,0.674573123455048,542.657775878906,-331.044952392578,0.743145108222961
"S068",0.360915820884705,1.1718841791153,"slow",0,168,0.306044659614563,TRUE,59,0.580306887626648,-542.197021484375,-285.094421386719,0.130526542663574
"S068",0.284189529037476,2.46541047096252,"fast",171,339,0.306628784561157,TRUE,60,0.379106253385544,-765.964965820312,-295.732269287109,-0.241921544075012
"S068",0.614028734779358,1.23557126522064,"missed",0,339,0.306044659614563,FALSE,60,0.479310631752014,602.806396484375,-126.988265991211,-0.998134911060333
"S068",0.315136672592163,3.71646332740784,"slow",0,339,0.306628784561157,TRUE,61,0.625754058361053,465.316223144531,-298.796356201172,-0.631271243095398
"S068",0.345918883514404,1.5032811164856,"slow",0,339,0.307512028312683,TRUE,62,0.47911149263382,539.794677734375,11.3141021728516,-0.289967805147171
"S068",0.302645457077026,3.51265454292297,"fast",167,506,0.308395272064209,TRUE,63,0.332851767539978,383.222015380859,-413.329345703125,0.651356816291809
"S068",0.312208165740967,2.41989183425903,"slow",0,506,0.307512028312683,TRUE,64,0.454160928726196,-748.370727539062,-255.726287841797,-0.55403071641922
"S068",0.332725458908081,3.55057454109192,"slow",0,506,0.308395272064209,TRUE,65,0.410422682762146,-475.084411621094,-175.9892578125,0.115699537098408
"S068",0.323481504440307,2.09351849555969,"slow",0,506,0.308632803153992,TRUE,66,0.378319978713989,-408.913696289062,-109.257682800293,0.599806189537048
"S068",0.259620531082153,2.37337946891785,"fast",176,682,0.308870334243774,TRUE,67,0.422130614519119,472.182189941406,-203.334365844727,0.0759536400437355
"S068",0.276594926071167,3.92210507392883,"fast",172,854,0.308632803153992,TRUE,68,0.661793768405914,-657.136474609375,-248.874694824219,-0.998935461044312
"S068",0.313609219741821,3.68509078025818,"slow",0,854,0.308395272064209,TRUE,69,0.684763848781586,572.970764160156,-219.812164306641,0.71500951051712
"S068",0.541923524093628,3.10677647590637,"slow",0,854,0.308632803153992,TRUE,70,0.401397883892059,-562.107543945312,-192.675827026367,0.889862895011902
"S068",0.45598510761261,1.49421489238739,"slow",0,854,0.308870334243774,TRUE,71,0.570276618003845,718.881286621094,-305.1875,-0.416978478431702
"S068",0.307607078552246,3.34239292144775,"fast",166,1020,0.308879093360901,TRUE,72,0.494144260883331,570.130676269531,-357.671783447266,0.0286887548863888
"S068",0.331728964996338,3.28447103500366,"slow",0,1020,0.308870334243774,TRUE,73,0.695795118808746,-465.03662109375,-304.73046875,0.702699303627014
"S068",0.312737915420532,3.20466208457947,"slow",0,1020,0.308879093360901,TRUE,74,0.382498174905777,652.726257324219,-184.550582885742,0.770023882389069
"S068",0.479397361564636,1.20340263843536,"slow",0,1020,0.308887852478027,TRUE,75,0.444892168045044,595.300964355469,85.5379638671875,-0.494608908891678
"S068",0.336729956054687,1.49617004394531,"slow",0,1020,0.309564042472839,TRUE,76,0.414089530706406,-777.500061035156,161.548614501953,-0.247946709394455
"S068",0.296646114730835,3.06975388526917,"fast",168,1188,0.310240232467651,TRUE,77,0.613340139389038,-563.318420410156,-3.59445190429688,0.962956011295319
"S068",0.309839810180664,3.00646018981934,"slow",0,1188,0.309564042472839,TRUE,78,0.445010364055634,725.013732910156,-273.001861572266,0.723642528057098
"S068",0.269106861495972,2.59729313850403,"fast",174,1362,0.309839810180664,TRUE,79,0.309679269790649,650.724731445312,-260.244110107422,-0.773220360279083
"S068",0.353432201004028,2.11266779899597,"slow",0,1362,0.309363831329346,TRUE,80,0.428800284862518,623.439086914062,104.334045410156,0.456227779388428
"S068",0.26149086265564,2.52130913734436,"fast",176,1538,0.309839810180664,TRUE,81,0.421741127967834,684.383178710938,31.3508071899414,0.494608849287033
"S068",0.297610246276856,2.31898975372314,"fast",168,1706,0.309363831329346,TRUE,82,0.412939250469208,462.624206542969,-255.034088134766,0.980422616004944
"S068",0.34461913394928,1.72088086605072,"slow",0,1706,0.308887852478027,TRUE,83,0.436783105134964,497.462188720703,-227.868560791016,-0.568475008010864
"S068",0.312950467681885,1.90414953231812,"slow",0,1706,0.309363831329346,TRUE,84,0.614696800708771,564.032958984375,-88.1057815551758,-0.998757839202881
"S068",0.269489072036743,3.56371092796326,"fast",174,1880,0.309839810180664,TRUE,85,0.422500312328339,-499.780639648438,-333.278228759766,0.875835001468658
"S068",0.0106775615692136,3.68912243843079,"fast",200,2080,0.309363831329346,TRUE,86,0.415099829435349,647.930053710938,-217.419342041016,-0.702699065208435
"S068",0.383773096084595,1.64922690391541,"slow",0,2080,0.308887852478027,TRUE,87,0.560572147369385,520.211547851562,-45.9841651916504,-0.786461472511292
"S068",0.31041972541809,2.18858027458191,"slow",0,2080,0.309363831329346,TRUE,88,0.601823508739471,729.913146972656,-56.300178527832,0.955567181110382
"S068",0.279326024627685,1.45377397537231,"fast",172,2252,0.309839810180664,TRUE,89,0.472310483455658,677.094909667969,37.0598754882812,0.812653958797455
"S068",0.409783253860474,3.07291674613953,"slow",0,2252,0.309363831329346,TRUE,90,0.629735767841339,-490.354064941406,-120.642570495605,0.512882828712463
"S068",0.308804714202881,1.94069528579712,"fast",166,2418,0.309839810180664,TRUE,91,0.420406430959702,-652.655395507812,-307.296051025391,0.110706508159637
"S068",0.289435785102844,1.74336421489716,"fast",170,2588,0.309363831329346,TRUE,92,0.67029470205307,-529.608520507812,-118.724281311035,-0.947523415088654
"S068",0.433316352081299,3.2663836479187,"slow",0,2588,0.308887852478027,TRUE,93,0.322467029094696,610.709411621094,220.814743041992,0.26965868473053
"S068",0.308975612640381,2.89052438735962,"fast",166,2754,0.309363831329346,TRUE,94,0.518040299415588,-657.625366210938,-273.941375732422,0.871590197086334
"S068",-0.859948308563232,2.80984830856323,"early",-100,2654,0.308975612640381,FALSE,94,0,0,0,0
"S068",0.317790439224243,1.81480956077576,"slow",0,2654,0.308975612640381,TRUE,95,0.474706947803497,-675.543762207031,-179.919158935547,0.911000370979309
"S068",0.289542088699341,1.69315791130066,"fast",170,2824,0.309407711410522,TRUE,96,0.432053685188293,448.184020996094,-280.117523193359,0.889863133430481
"S068",0.302799969863892,1.81340003013611,"fast",167,2991,0.308975612640381,TRUE,97,0.347372651100159,-591.712280273438,-255.649688720703,0.281605422496796
"S068",0.329233283615112,1.22036671638489,"slow",0,2991,0.308931732559204,TRUE,98,0.485490798950195,-661.472290039062,28.5607147216797,-0.70269912481308
"S068",0.327071318435669,2.27272868156433,"slow",0,2991,0.308975612640381,TRUE,99,0.390069246292114,434.264709472656,36.1245346069336,0.494608789682388
"S068",0.342681712722778,1.40691828727722,"slow",0,2991,0.309407711410522,TRUE,100,0.338645100593567,-426.09130859375,34.8778076171875,0.527786910533905
"S068",0.300324345016479,2.98257565498352,"fast",167,3158,0.309839810180664,TRUE,101,0.408659487962723,-547.256774902344,161.005126953125,-0.998757898807526
"S068",0.284708947753906,2.61489105224609,"fast",171,3329,0.309407711410522,TRUE,102,0.646389067173004,-585.213134765625,-337.549194335938,-0.977622210979462
"S068",0.443411611175537,1.77268838882446,"slow",0,3329,0.308975612640381,TRUE,103,0.511635184288025,544.218383789062,-214.378082275391,-0.686529994010925
"S068",0.336650497817993,1.27824950218201,"slow",0,3329,0.309407711410522,TRUE,104,0.399699419736862,430.163940429688,141.18994140625,0.0461292527616024
"S068",0.331485697174072,3.98491430282593,"slow",0,3329,0.309839810180664,TRUE,105,0.487731158733368,579.876342773438,3.99564361572266,0.683833658695221
"S068",-0.622737942886353,3.28903794288635,"early",-100,3229,0.310040021324157,FALSE,105,0,0,0,0
"S068",0.288152056884766,3.37804794311523,"fast",170,3399,0.310040021324157,TRUE,106,0.433191508054733,529.982421875,-402.160491943359,0.837299585342407
"S068",0.292378887176513,3.39162111282349,"fast",169,3568,0.309839810180664,TRUE,107,0.612261235713959,480.83349609375,-387.034881591797,-0.789555072784424
"S068",0.404333430480957,1.26186656951904,"slow",0,3568,0.309407711410522,TRUE,108,0.56515508890152,500.289184570312,-366.954284667969,-0.938830375671387
"S068",0.293329228591919,2.80587077140808,"fast",169,3737,0.309839810180664,TRUE,109,0.681948602199554,-693.569030761719,-151.024139404297,-0.812653958797455
"S068",0.340106271743774,2.50889372825623,"slow",0,3737,0.309407711410522,TRUE,110,0.493618667125702,685.837646484375,74.4268493652344,0.158915475010872
"S068",0.444334839057922,1.08886516094208,"slow",0,3737,0.309839810180664,TRUE,111,0.636358678340912,-631.001281738281,39.569580078125,0.298308610916138
"S068",0.30666907711029,1.57503092288971,"fast",166,3903,0.310040021324157,TRUE,112,0.678906619548798,642.007751464844,-139.507919311523,-0.585750699043274
"S068",0.349044013023376,1.70095598697662,"slow",0,3903,0.309839810180664,TRUE,113,0.619442999362946,-436.156677246094,-73.727783203125,0.327942818403244
"S068",0.330394527816773,3.73700547218323,"slow",0,3903,0.310040021324157,TRUE,114,0.567443251609802,419.805206298828,-42.1840171813965,-0.252811819314957
"S068",0.332190855789185,1.81660914421082,"slow",0,3903,0.310240232467651,TRUE,115,0.479956746101379,400.497009277344,-367.146606445312,-0.542530059814453
"S068",0.297190709686279,2.35340929031372,"fast",168,4071,0.310329978942871,TRUE,116,0.490102350711823,-710.3056640625,-338.228698730469,-0.273221224546432
"S068",0.339665057373047,3.36003494262695,"slow",0,4071,0.310240232467651,TRUE,117,0.577766537666321,-433.226257324219,58.5912742614746,0.494608879089355
"S068",0.311769665527343,3.35453033447266,"slow",0,4071,0.310329978942871,TRUE,118,0.621726095676422,-532.799560546875,-169.891677856445,0.991113781929016
"S068",0.634708428764343,1.64819157123566,"missed",0,4071,0.31041972541809,FALSE,118,0.603700637817383,-618.033569335938,-372.514404296875,-0.471688628196716
"S068",0.535141089057922,1.14745891094208,"slow",0,4071,0.311094695472717,TRUE,119,0.312126040458679,-478.365661621094,-426.319091796875,-0.435324668884277
"S068",0.250580505371094,2.71591949462891,"fast",178,4249,0.311769665527343,TRUE,120,0.676165044307709,-611.731384277344,-209.300552368164,-0.962189793586731
"S068",0.32955927028656,1.16934072971344,"slow",0,4249,0.311094695472717,TRUE,121,0.469285845756531,-428.941558837891,-189.266387939453,0.272380173206329
"S068",0.314939455413818,2.03446054458618,"slow",0,4249,0.311769665527343,TRUE,122,0.459337532520294,467.347839355469,-266.928039550781,0.739561259746552
"S068",0.317487896728515,3.59881210327148,"slow",0,4249,0.311988915634155,TRUE,123,0.388093709945679,670.651306152344,-13.9886016845703,-0.817204713821411
"S068",0.341996406173706,1.57410359382629,"slow",0,4249,0.312208165740967,TRUE,124,0.63787579536438,722.664367675781,-381.512237548828,0.263973116874695
"S068",-1.11361016464233,3.24661016464233,"early",-100,4149,0.312218252372742,FALSE,124,0,0,0,0
"S068",0.319805519485473,3.68009448051453,"slow",0,4149,0.312218252372742,TRUE,125,0.350078582763672,565.071594238281,-208.279663085938,0.606070935726166
"S068",0.351277171707153,2.86532282829285,"slow",0,4149,0.312228339004517,TRUE,126,0.323907315731049,419.936218261719,224.076217651367,-0.153088420629501
"S068",0.640594899177551,1.20890510082245,"missed",0,4149,0.312483127212524,FALSE,126,0.683174312114716,490.307861328125,-193.262466430664,-0.305794149637222
"S068",0.322717990112305,2.3764820098877,"slow",0,4149,0.312737915420532,TRUE,127,0.670030415058136,-580.385314941406,-136.426910400391,0.176364153623581
"S068",0.297016646575928,2.30268335342407,"fast",169,4318,0.312844191551208,TRUE,128,0.458581686019897,524.139526367188,-158.878234863281,-0.401277303695679
"S068",0.288932587814331,2.31076741218567,"fast",170,4488,0.312737915420532,TRUE,129,0.380975723266602,449.881469726562,-118.086532592773,0.893700122833252
"S068",0.315015037536621,2.16798496246338,"slow",0,4488,0.312483127212524,TRUE,130,0.66299170255661,458.159393310547,-210.078552246094,0.98375391960144
"S068",0.29901392288208,2.58418607711792,"fast",168,4656,0.312737915420532,TRUE,131,0.624357998371124,-641.821899414062,-364.052825927734,0.448664873838425
"S068",0.384532222938538,1.09816777706146,"slow",0,4656,0.312483127212524,TRUE,132,0.549679279327393,416.021850585938,4.45841979980469,-0.696640133857727
"S068",-0.671800531768799,3.2374005317688,"early",-100,4556,0.312737915420532,FALSE,132,0,0,0,0
"S068",0.341850901031494,3.94104909896851,"slow",0,4556,0.312737915420532,TRUE,133,0.435720384120941,-759.114440917969,16.9886856079102,0.800292670726776
"S068",0.307188592147827,2.37551140785217,"fast",166,4722,0.312844191551208,TRUE,134,0.660392701625824,563.569519042969,-200.150329589844,0.800292670726776
"S068",0.353539566040039,3.01296043395996,"slow",0,4722,0.312737915420532,TRUE,135,0.597543478012085,430.120208740234,-359.158508300781,-0.474732577800751
"S068",0.379665202713013,2.86993479728699,"slow",0,4722,0.312844191551208,TRUE,136,0.675779283046722,577.497924804688,-164.953338623047,-0.99595046043396
"S068",0.320106568908691,2.91299343109131,"slow",0,4722,0.312950467681885,TRUE,137,0.506443500518799,422.774597167969,63.1232299804688,0.119130671024323
"S068",0.408158840370178,1.64104115962982,"slow",0,4722,0.313279843711853,TRUE,138,0.606666386127472,-613.642333984375,-253.689010620117,-0.0670040622353554
"S068",0.29614447479248,1.92015552520752,"fast",169,4891,0.313609219741821,TRUE,139,0.379588186740875,-401.083129882812,122.681930541992,-0.289732277393341
"S067",0.614887882232666,1.98611211776733,"missed",0,0,0.375,FALSE,0,0.32022088766098,741.640808105469,-41.0402374267578,0.898794054985046
"S067",0.425102066040039,3.47389793395996,"fast",173,173,0.6,TRUE,1,0.451297998428345,-312.32763671875,-257.697235107422,0.150916144251823
"S067",0.542783514022827,3.02321648597717,"slow",0,173,0.51255103302002,TRUE,2,0.352333605289459,270.431518554688,-353.291564941406,0.441192984580994
"S067",0.641643983840942,1.19035601615906,"slow",0,173,0.542783514022827,TRUE,3,0.611956417560577,-646.4091796875,-357.014038085938,-0.361299335956573
"S067",0.342190790176391,3.95780920982361,"fast",180,353,0.571391757011414,TRUE,4,0.647103250026703,490.104675292969,-191.161895751953,-0.393621295690536
"S067",1.11726805305481,2.14873194694519,"missed",0,353,0.542783514022827,FALSE,4,0.425625890493393,548.818420410156,141.872665405273,0.303700685501099
"S067",0.384613393783569,2.31438660621643,"fast",176,529,0.571391757011414,TRUE,5,0.608879387378693,-345.432250976562,-113.863677978516,-0.891955494880676
"S067",0.372040937423706,3.72595906257629,"fast",176,705,0.542783514022827,TRUE,6,0.38824662566185,-692.409057617188,-121.68807220459,0.853732764720917
"S067",0.975310832977295,2.15668916702271,"missed",0,705,0.483942790031433,FALSE,6,0.325505077838898,-695.188598632812,-297.640441894531,0.99333256483078
"S067",1.09213209915161,1.44086790084839,"missed",0,705,0.542783514022827,FALSE,6,0.307757019996643,-673.596618652344,-65.0385437011719,0.242938563227654
"S067",1.16786232757568,3.76513767242432,"missed",0,705,0.571391757011414,FALSE,6,0.682517826557159,476.919738769531,-238.680709838867,-0.426411688327789
"S067",0.329874982833862,2.53512501716614,"fast",182,887,0.6,TRUE,7,0.535654723644257,330.167266845703,-287.384857177734,-0.365202575922012
"S067",0.430847786903381,1.66815221309662,"fast",171,1058,0.571391757011414,TRUE,8,0.640800297260284,476.121643066406,-235.939636230469,-0.635000944137573
"S067",0.419364650726318,1.31363534927368,"fast",171,1229,0.542783514022827,TRUE,9,0.654939115047455,-628.823547363281,-13.9159450531006,-0.574718952178955
"S067",0.305107545852661,1.89489245414734,"fast",181,1410,0.486815650463104,TRUE,10,0.446755766868591,297.995147705078,116.714988708496,-0.447446197271347
"S067",0.339048448562622,2.02695155143738,"fast",173,1583,0.430847786903381,TRUE,11,0.502083301544189,410.62841796875,-2.29494476318359,0.748030364513397
"S067",0.482922800064087,3.05007719993591,"slow",0,1583,0.42797492647171,TRUE,12,0.549995839595795,-469.914855957031,-303.220550537109,-0.718369662761688
"S067",0.425143432617187,3.27485656738281,"fast",161,1744,0.430847786903381,TRUE,13,0.4036485850811,-659.46044921875,-299.982543945312,-0.860920011997223
"S067",0.86862273979187,2.86437726020813,"missed",0,1744,0.427995609760284,FALSE,13,0.623108386993408,-453.450500488281,-354.709655761719,-0.657111704349518
"S067",0.576178104400634,2.55582189559937,"slow",0,1744,0.430847786903381,TRUE,14,0.560544550418854,-458.85107421875,-102.664657592773,-0.998719453811646
"S067",0.92166171836853,3.71133828163147,"missed",0,1744,0.456885293483734,FALSE,14,0.545633614063263,-708.476928710938,-190.912582397461,0.815128266811371
"S067",0.990836786270141,3.00816321372986,"missed",0,1744,0.482922800064087,FALSE,14,0.671963512897491,-562.330017089844,-88.2552719116211,-0.218823552131653
"S067",0.662965622901917,1.10303437709808,"slow",0,1744,0.512853157043457,TRUE,15,0.581901669502258,-661.994750976562,-134.519973754883,-0.252408504486084
"S067",1.11546649074554,1.45053350925446,"missed",0,1744,0.542783514022827,FALSE,15,0.30371356010437,-764.462829589844,223.34635925293,-0.408650308847427
"S067",1.14642099571228,3.62057900428772,"missed",0,1744,0.559480809211731,FALSE,15,0.666842639446259,-676.266784667969,-322.557922363281,0.899253368377686
"S067",1.17967670822143,2.95432329177856,"missed",0,1744,0.576178104400634,FALSE,15,0.573280096054077,593.049621582031,3.66259765625,0.461750388145447
"S067",0.482255029678345,1.81774497032166,"fast",167,1911,0.588089052200317,TRUE,16,0.686125218868256,372.398834228516,-332.835418701172,-0.423565059900284
"S067",0.450786255836487,1.64821374416351,"fast",169,2080,0.576178104400634,TRUE,17,0.588749349117279,406.388641357422,-364.276336669922,0.349228531122208
"S067",0.526276412963867,1.33972358703613,"fast",161,2241,0.559480809211731,TRUE,18,0.400691002607346,-546.599975585938,-208.396392822266,0.485723197460175
"S067",1.11420765590668,1.01779234409332,"missed",0,2241,0.542783514022827,FALSE,18,0.390585660934448,690.67529296875,-190.251037597656,-0.813508331775665
"S067",0.547022127151489,2.55197787284851,"fast",159,2400,0.559480809211731,TRUE,19,0.364134311676025,-563.676391601562,-248.914611816406,0.947656273841858
"S067",0.665814748764038,3.00018525123596,"slow",0,2400,0.547022127151489,TRUE,20,0.422857642173767,390.014465332031,-219.205474853516,-0.756083607673645
"S067",0.644640468597412,3.95435953140259,"slow",0,2400,0.561600115776062,TRUE,21,0.354175984859467,-459.895385742188,-24.4292449951172,-0.99228847026825
"S067",0.415601547241211,3.41739845275879,"fast",173,2573,0.576178104400634,TRUE,22,0.600888431072235,-382.987884521484,-243.779006958008,0.989323616027832
"S067",0.76659278011322,1.19940721988678,"slow",0,0,0.561600115776062,TRUE,23,0.493984222412109,-670.821899414062,51.0874252319336,0.356409668922424
"S067",0.512729404449463,3.38527059555054,"fast",163,163,0.576178104400634,TRUE,24,0.670430362224579,658.271545410156,-207.279998779297,-0.99228847026825
"S067",0.802991906166076,1.66300809383392,"slow",0,163,0.561600115776062,TRUE,25,0.30351060628891,630.230529785156,203.807022094727,-0.987358212471008
"S067",-3.34098025131226,3.60798025131226,"early",-100,63,0.576178104400634,FALSE,25,0,0,0,0
"S067",0.461771368026733,2.73722863197327,"fast",168,231,0.576178104400634,TRUE,26,0.633082687854767,588.444580078125,-231.567169189453,0.327550023794174
"S067",0.469433935165405,3.96356606483459,"fast",167,398,0.561600115776062,TRUE,27,0.358621060848236,-395.464965820312,-273.034606933594,0.614007830619812
"S067",1.11506820487976,2.41793179512024,"missed",0,398,0.547022127151489,FALSE,27,0.337605178356171,399.769348144531,189.296661376953,0.459887713193893
"S067",1.13369128513336,1.36430871486664,"missed",0,398,0.561600115776062,FALSE,27,0.32610410451889,-556.838928222656,56.7757568359375,0.82708215713501
"S067",1.16105493545532,2.30394506454468,"missed",0,398,0.576178104400634,FALSE,27,0.464075684547424,-466.888793945312,75.3514709472656,-0.977194666862488
"S067",1.17645613288879,2.78954386711121,"missed",0,398,0.588089052200317,FALSE,27,0.610681354999542,348.226409912109,-327.948547363281,0.999473094940186
"S067",1.20765181350708,2.52534818649292,"missed",0,398,0.6,FALSE,27,0.4876549243927,448.400146484375,-86.1657638549805,0.864276587963104
"S067",1.2698324432373,2.6291675567627,"missed",0,398,0.620821991920471,FALSE,27,0.361373841762543,314.112518310547,57.7323303222656,-0.917614579200745
"S067",1.29796108436584,1.76903891563416,"missed",0,398,0.641643983840942,FALSE,27,0.377872705459595,-477.779724121094,-438.904388427734,0.375897496938705
"S067",0.309297766685486,1.15570223331451,"fast",185,583,0.643142226219177,TRUE,28,0.691297352313995,656.744873046875,1.7165355682373,0.582687318325043
"S067",0.407590189933777,1.55840981006622,"fast",177,760,0.641643983840942,TRUE,29,0.324987351894379,-451.814086914062,-141.491180419922,0.486941903829575
"S067",0.450529836654663,1.64847016334534,"fast",172,932,0.620821991920471,TRUE,30,0.490395724773407,370.473937988281,-239.166198730469,-0.982807457447052
"S067",0.316639684677124,3.78236031532288,"fast",184,1116,0.6,TRUE,31,0.697354376316071,502.480041503906,-318.199310302734,0.667315721511841
"S067",0.464918787002564,1.56708121299744,"fast",169,1285,0.588089052200317,TRUE,32,0.499595761299133,-635.517395019531,-229.254684448242,-0.482674479484558
"S067",0.324373332977295,2.74262666702271,"fast",182,1467,0.576178104400634,TRUE,33,0.480126976966858,-629.718017578125,-140.790863037109,-0.995159387588501
"S067",0.267701894760132,3.86429810523987,"fast",187,1654,0.561600115776062,TRUE,34,0.324694573879242,-546.606872558594,26.5840148925781,-0.892111420631409
"S067",0.357244316101074,2.00875568389893,"fast",178,1832,0.547022127151489,TRUE,35,0.461692273616791,739.943359375,-202.416351318359,0.686582922935486
"S067",0.370700024604797,1.2282999753952,"fast",176,2008,0.544902820587158,TRUE,36,0.646351873874664,500.186462402344,-47.2333297729492,0.844699740409851
"S067",-2.35431707000732,3.55331707000732,"early",-100,1908,0.542783514022827,FALSE,36,0,0,0,0
"S067",0.857874376296997,1.974125623703,"slow",0,1908,0.542783514022827,TRUE,37,0.417212605476379,657.621215820312,54.7678833007812,-0.972936570644379
"S067",0.33265380859375,3.46734619140625,"fast",180,2088,0.544902820587158,TRUE,38,0.530631422996521,-620.877746582031,-62.1266250610352,0.947546720504761
"S067",0.290673128128052,2.37532687187195,"fast",184,2272,0.542783514022827,TRUE,39,0.472432136535645,633.389343261719,-77.7894058227539,-0.67378956079483
"S067",0.295999803543091,2.86900019645691,"fast",184,2456,0.534529963493347,TRUE,40,0.626209676265717,-510.351531982422,-138.725341796875,-0.967533946037292
"S067",0.451012380599976,1.08198761940002,"fast",166,2622,0.526276412963867,TRUE,41,0.328574359416962,-429.049987792969,-351.402282714844,0.564394116401672
"S067",0.995454605102539,3.83754539489746,"slow",0,2622,0.519502908706665,TRUE,42,0.408979535102844,-406.4091796875,-140.60009765625,0.980408191680908
"S067",0.36977260017395,2.12922739982605,"fast",175,2797,0.526276412963867,TRUE,43,0.35401177406311,723.882019042969,-341.286529541016,0.106954380869865
"S067",0.430785917282104,1.6682140827179,"fast",168,2965,0.519502908706665,TRUE,44,0.643552780151367,-538.215881347656,-53.7734260559082,-0.617582142353058
"S067",0.783211557388305,1.28378844261169,"slow",0,2965,0.512729404449463,TRUE,45,0.417876809835434,-552.464477539062,-311.494323730469,0.869151771068573
"S067",1.05096390151978,3.04803609848022,"missed",0,2965,0.519502908706665,FALSE,45,0.522994756698608,354.094940185547,40.5534286499023,0.951807618141174
"S067",0.33623754119873,2.82976245880127,"fast",179,3144,0.526276412963867,TRUE,46,0.512958288192749,617.139221191406,80.3572998046875,0.99964827299118
"S067",0.996997577667236,2.33500242233276,"slow",0,3144,0.519502908706665,TRUE,47,0.526809215545654,433.172027587891,43.5732269287109,-0.98474782705307
"S067",0.30191005897522,3.06508994102478,"fast",183,3327,0.526276412963867,TRUE,48,0.395231395959854,-632.01953125,143.445709228516,0.898642659187317
"S067",0.664489706039428,2.56851029396057,"slow",0,0,0.519502908706665,TRUE,49,0.63388055562973,561.294860839844,-361.822235107422,-0.782393157482147
"S067",0.783972351074219,3.78302764892578,"slow",0,0,0.526276412963867,TRUE,50,0.393238216638565,539.759033203125,-258.233245849609,0.77140486240387
"S067",0.83014772605896,3.50185227394104,"slow",0,0,0.534529963493347,TRUE,51,0.413010567426682,545.311950683594,-91.4541320800781,-0.333481341600418
"S067",0.348336799621582,3.28466320037842,"fast",178,178,0.542783514022827,TRUE,52,0.371637403964996,453.837463378906,15.7604675292969,-0.777363181114197
"S067",0.430599911689758,1.70240008831024,"fast",169,347,0.534529963493347,TRUE,53,0.449718952178955,-543.714172363281,-131.280807495117,0.601539254188538
"S067",0.499703859329224,2.29929614067078,"fast",161,508,0.526276412963867,TRUE,54,0.510156869888306,672.670471191406,54.8015289306641,0.99940288066864
"S067",0.671991197586059,2.39500880241394,"slow",0,508,0.519502908706665,TRUE,55,0.546885251998901,599.108337402344,-241.213531494141,0.94563102722168
"S067",0.376079582214355,3.22292041778564,"fast",174,682,0.526276412963867,TRUE,56,0.413923859596252,696.296875,129.019943237305,0.199706375598907
"S067",-0.998795080184937,2.69879508018494,"early",-100,582,0.519502908706665,FALSE,56,0,0,0,0
"S067",1.0465094165802,2.8864905834198,"missed",0,582,0.519502908706665,FALSE,56,0.391938418149948,720.901000976562,115.32958984375,-0.20757383108139
"S067",1.07723186683655,1.75476813316345,"missed",0,582,0.526276412963867,FALSE,56,0.635041058063507,-602.666625976562,-136.227111816406,0.0972317159175873
"S067",0.469064123153686,1.76293587684631,"fast",165,747,0.534529963493347,TRUE,57,0.61780172586441,606.494445800781,-217.259506225586,0.786506593227386
"S067",0.897919138908386,1.63608086109161,"slow",0,747,0.526276412963867,TRUE,58,0.400082439184189,-371.425170898438,-94.2637481689453,0.885881841182709
"S067",-1.49424807357788,2.42624807357788,"early",-100,647,0.534529963493347,FALSE,58,0,0,0,0
"S067",0.375179329872131,1.09082067012787,"fast",175,822,0.534529963493347,TRUE,59,0.449296176433563,-562.674072265625,-222.592468261719,0.201757803559303
"S067",0.473667629241943,2.55933237075806,"fast",164,986,0.526276412963867,TRUE,60,0.561714589595795,589.691040039062,-202.017578125,-0.0847253650426865
"S067",0.469753138542175,1.49724686145782,"fast",164,1150,0.519502908706665,TRUE,61,0.635826885700226,469.450744628906,-144.139678955078,-0.81269645690918
"S067",0.364521661758423,2.10147833824158,"fast",175,1325,0.512729404449463,TRUE,62,0.339679181575775,509.464294433594,-14.5572052001953,-0.0982736423611641
"S067",0.507305518150329,1.55869448184967,"slow",0,1325,0.506216631889343,TRUE,63,0.642402172088623,-676.274291992188,-313.811889648438,0.812696576118469
"S067",0.801625560760498,2.5973744392395,"slow",0,1325,0.507305518150329,TRUE,64,0.6601921916008,-585.242553710938,-39.4382171630859,0.244288146495819
"S067",0.997417346000671,1.06858265399933,"slow",0,1325,0.510017461299896,TRUE,65,0.679859220981598,-569.782836914062,-192.619598388672,-0.794835925102234
"S067",0.309546342849731,3.35645365715027,"fast",181,1506,0.512729404449463,TRUE,66,0.591745316982269,-573.248718261719,-111.53742980957,-0.582687139511108
"S067",0.450899719238281,3.24810028076172,"fast",165,1671,0.510017461299896,TRUE,67,0.357605338096619,722.534423828125,-90.1638107299805,0.606824338436127
"S067",0.392851179122925,2.57514882087708,"fast",171,1842,0.507305518150329,TRUE,68,0.383242040872574,-760.66259765625,-88.0135726928711,0.978651940822601
"S067",0.381369455337524,2.25163054466248,"fast",173,2015,0.503504688739776,TRUE,69,0.474928379058838,-619.856140136719,87.6344146728516,-0.995979189872742
"S067",0.367069990158081,1.26493000984192,"fast",174,2189,0.499703859329224,TRUE,70,0.354519546031952,509.738311767578,-278.421875,0.84207808971405
"S067",0.346574369430542,1.01942563056946,"fast",176,2365,0.491313329696655,TRUE,71,0.315992295742035,-767.921264648438,-431.990844726562,0.0198917109519243
"S067",0.306102568626404,1.2258974313736,"fast",180,2545,0.482922800064087,TRUE,72,0.69205230474472,-538.919372558594,-232.645416259766,-0.527848720550537
"S067",0.355355508804321,1.17764449119568,"fast",174,2719,0.482588914871216,TRUE,73,0.328902244567871,-461.371276855469,146.411972045898,-0.19320322573185
"S067",0.478904897689819,2.55309510231018,"fast",159,2878,0.482255029678345,TRUE,74,0.56417578458786,681.024658203125,-67.5774383544922,0.959509789943695
"S067",0.267617614746094,3.16538238525391,"fast",185,3063,0.480579963684082,TRUE,75,0.411155074834824,-775.205871582031,-138.196655273438,0.844699740409851
"S067",0.331316257476807,2.86968374252319,"fast",177,3240,0.478904897689819,TRUE,76,0.524311780929565,-568.042297363281,-318.327941894531,0.319617241621017
"S067",0.378704190254211,1.62129580974579,"fast",171,3411,0.476286263465881,TRUE,77,0.558423161506653,-649.3544921875,-12.6536254882812,-0.781087219715118
"S067",0.796370386123657,1.90262961387634,"slow",0,3411,0.473667629241943,TRUE,78,0.568512797355652,-549.647094726562,-113.266899108887,0.356089353561401
"S067",0.50639967918396,1.79360032081604,"slow",0,3411,0.476286263465881,TRUE,79,0.502851009368896,-693.329711914062,-199.295288085938,0.950299859046936
"S067",0.331074571609497,3.2689254283905,"fast",177,3588,0.478904897689819,TRUE,80,0.335590243339539,431.943054199219,-379.507080078125,-0.119447648525238
"S067",0.338121549606323,3.02887845039368,"fast",176,3764,0.476286263465881,TRUE,81,0.499988615512848,661.346069335938,-191.074371337891,-0.81775039434433
"S067",0.438417203903198,2.5945827960968,"fast",163,3927,0.473667629241943,TRUE,82,0.669215857982635,614.241333007812,-82.6070404052734,-0.986685335636139
"S067",0.335418749809265,1.26558125019073,"fast",176,4103,0.471710383892059,TRUE,83,0.645102798938751,-702.395690917969,33.2656478881836,0.992840588092804
"S067",0.316677768707275,1.91632223129272,"fast",178,4281,0.469753138542175,TRUE,84,0.393601715564728,653.464721679688,8.7452392578125,-0.37234354019165
"S067",0.526694194793701,1.8403058052063,"slow",0,4281,0.46959353685379,TRUE,85,0.382328033447266,434.173858642578,-393.081909179688,-0.950299859046936
"S067",0.280957206726074,2.15304279327393,"fast",183,4464,0.469753138542175,TRUE,86,0.556539952754974,736.852844238281,-80.4477996826172,-0.994773983955383
"S067",0.58583138847351,2.34816861152649,"slow",0,4464,0.46959353685379,TRUE,87,0.444845914840698,445.611358642578,-311.114318847656,0.0237381551414728
"S067",0.323469081878662,3.64253091812134,"fast",178,4642,0.469753138542175,TRUE,88,0.336276888847351,607.556396484375,-270.051177978516,0.970883071422577
"S067",0.380489999771118,1.65151000022888,"fast",170,4812,0.46959353685379,TRUE,89,0.424573063850403,-405.341735839844,60.2571487426758,-0.102101966738701
"S067",0.365803367614746,2.36619663238525,"fast",172,4984,0.469433935165405,TRUE,90,0.448103547096252,725.254821777344,-134.308944702148,-0.967533946037292
"S067",0.372242458343506,2.66075754165649,"fast",171,5155,0.469249029159546,TRUE,91,0.676730334758759,-636.648803710938,-289.917175292969,0.860388457775116
"S014",0.49533872680664,3.07046127319336,"slow",0,0,0.375,TRUE,1,0.634179532527924,-515.833984375,34.7184181213379,0.870355784893036
"S014",0.378049157714844,3.08805084228516,"fast",172,172,0.49533872680664,TRUE,2,0.36430811882019,-424.729736328125,-173.545928955078,0.852640271186829
"S014",0.508221290261841,3.27457880973816,"slow",0,172,0.436693942260742,TRUE,3,0.520599186420441,-514.164428710938,2.78144073486328,-0.989015817642212
"S014",0.378490625436401,2.2877094745636,"fast",172,344,0.49533872680664,TRUE,4,0.468299388885498,457.775329589844,86.0463180541992,0.948323547840118
"S014",0.35174338722229,1.39725661277771,"fast",172,516,0.436914676121521,TRUE,5,0.441835731267929,-665.155151367188,119.677284240723,0.529919564723969
"S014",0.445417569732666,1.92068243026733,"slow",0,516,0.378490625436401,TRUE,6,0.633320391178131,-558.548828125,-181.514236450195,0.390731424093246
"S014",0.376820718765259,2.32267928123474,"fast",166,682,0.411954097584533,TRUE,7,0.541437864303589,-583.595581054688,-203.235137939453,-0.529919505119324
"S014",0.342730614089966,2.12366938591003,"fast",168,850,0.378490625436401,TRUE,8,0.460046768188477,601.703674316406,-299.463226318359,0.998134791851044
"S014",0.341681811959839,2.64111828804016,"fast",168,1018,0.378269891575622,TRUE,9,0.617757737636566,393.193756103516,-357.236419677734,-0.469471156597137
"S014",0.448206311416626,3.26799368858337,"slow",0,1018,0.378049157714844,TRUE,10,0.446548461914062,-358.455749511719,76.6877136230469,-0.987688302993774
"S014",0.464800744302368,3.21809935569763,"slow",0,1018,0.378269891575622,TRUE,11,0.351430475711823,-477.987121582031,-197.755004882812,-0.737277686595917
"S014",0.336975508880615,2.17922449111938,"fast",169,1187,0.378490625436401,TRUE,12,0.529091715812683,-541.201538085938,-84.2112045288086,0.920504689216614
"S014",0.451883393478393,1.71431660652161,"slow",0,1187,0.378269891575622,TRUE,13,0.355207622051239,-457.367645263672,-131.785491943359,0.987688481807709
"S014",0.377058213424682,3.18864178657532,"fast",162,1349,0.378490625436401,TRUE,14,0.634758770465851,539.164611816406,-83.3177185058594,0.559193313121796
"S014",0.379022598648071,3.00387740135193,"slow",0,1349,0.378269891575622,TRUE,15,0.432671666145325,525.331298828125,-94.2891387939453,-0.649447679519653
"S014",0.368971515083313,1.06392848491669,"fast",163,1512,0.378490625436401,TRUE,16,0.48709362745285,-310.608367919922,-390.392333984375,-0.833885550498962
"S014",0.332760899353027,1.75003910064697,"fast",169,1681,0.378269891575622,TRUE,17,0.308969497680664,743.698120117188,-104.314430236816,0.760405719280243
"S014",0.355178224563598,2.5443217754364,"fast",166,1847,0.378049157714844,TRUE,18,0.387854427099228,540.575439453125,-328.301879882812,-0.694658041000366
"S014",0.667246242086792,3.71565365791321,"slow",0,1847,0.377553685569763,TRUE,19,0.64136153459549,-685.236694335938,-209.211807250977,0.492423236370087
"S014",0.359611527252197,2.2221884727478,"fast",165,2012,0.378049157714844,TRUE,20,0.669449150562286,-439.695709228516,-325.0341796875,0.76604425907135
"S014",0.385699542045593,1.54730045795441,"slow",0,2012,0.377553685569763,TRUE,21,0.462401270866394,-591.985412597656,-58.2638549804688,0.390731453895569
"S014",0.392471797943115,2.89052820205688,"slow",0,2012,0.378049157714844,TRUE,22,0.445267915725708,386.45263671875,-1.96324920654297,-0.688354849815369
"S014",0.304493997192383,2.81060600280762,"fast",174,2186,0.378269891575622,TRUE,23,0.465054214000702,481.947296142578,-236.740295410156,0.992546081542969
"S014",0.32840874786377,2.28779125213623,"fast",170,2356,0.378049157714844,TRUE,24,0.618397653102875,366.910766601562,-197.441513061523,0.819152295589447
"S014",0.290490822219848,2.30890917778015,"fast",176,2532,0.377553685569763,TRUE,25,0.302672386169434,-479.559692382812,28.466552734375,0.544639468193054
"S014",0.497701096780395,2.0176990032196,"slow",0,0,0.377058213424682,TRUE,26,0.583018779754639,-527.349548339844,-169.355438232422,0.544639468193054
"S014",0.373316188375854,1.00958371162415,"fast",163,163,0.377553685569763,TRUE,27,0.337888479232788,-468.795196533203,-294.173553466797,-0.933580636978149
"S014",0.473087512969971,1.52641248703003,"slow",0,163,0.377058213424682,TRUE,28,0.573668122291565,583.395446777344,-345.266052246094,0.688354253768921
"S014",0.304995527322387,2.17770457267761,"fast",174,337,0.377553685569763,TRUE,29,0.336836218833923,474.021789550781,-307.111785888672,0.990268170833588
"S014",0.326241574478149,3.35645842552185,"fast",170,507,0.377058213424682,TRUE,30,0.647417366504669,-371.860626220703,-115.77473449707,-0.649447739124298
"S014",0.331411461257935,2.16798853874207,"fast",169,676,0.376939466094971,TRUE,31,0.364439189434052,-576.954223632812,18.3456878662109,-0.694658696651459
"S014",0.290269496536255,2.79233050346375,"fast",176,852,0.376820718765259,TRUE,32,0.616185367107391,-461.483459472656,-25.9865760803223,-0.182236015796661
"S014",0.313481507110596,2.0863184928894,"fast",172,1024,0.375068453570557,TRUE,33,0.640358865261078,604.645080566406,25.4194183349609,0.819152414798737
"S014",0.270589914376831,2.56211018562317,"fast",179,1203,0.373316188375854,TRUE,34,0.520862519741058,-632.695861816406,-259.948181152344,-0.754709184169769
"S014",0.351015480041504,2.5819845199585,"fast",166,1369,0.371143851729584,TRUE,35,0.424319237470627,743.775634765625,-27.2747192382812,-0.974370241165161
"S014",0.336461323492431,2.47963857650757,"fast",168,1537,0.368971515083313,TRUE,36,0.451555967330933,488.15625,35.4361267089844,-0.782608568668365
"S014",0.327880185754394,3.83841991424561,"fast",169,1706,0.364291521167755,TRUE,37,0.400173366069794,742.870788574219,-347.372406005859,0.731353342533112
"S014",0.313660068511963,2.66883993148804,"fast",171,1877,0.359611527252197,TRUE,38,0.384011834859848,-369.499572753906,-361.056823730469,0.874619483947754
"S014",0.402789413452148,1.69671058654785,"slow",0,1877,0.357394875907898,TRUE,39,0.51111763715744,-435.747741699219,59.4418907165527,0.622515022754669
"S014",0.343150793075561,3.95534920692444,"fast",166,2043,0.359611527252197,TRUE,40,0.684014141559601,662.709350585938,-341.958923339844,0.333807379007339
"S014",0.337336398751831,2.41196370124817,"fast",166,2209,0.357394875907898,TRUE,41,0.494466483592987,-398.230895996094,40.7665328979492,-0.913545727729797
"S014",0.285503318786621,1.97999668121338,"fast",175,2384,0.355178224563598,TRUE,42,0.416793078184128,-617.615417480469,-323.970794677734,0.956304609775543
"S014",0.301915506744385,2.69748449325562,"fast",172,2556,0.353460805892944,TRUE,43,0.584635853767395,-430.689270019531,-340.350463867188,0.953717112541199
"S014",0.345430139923096,1.5539698600769,"fast",164,2720,0.35174338722229,TRUE,44,0.413779467344284,368.499816894531,-347.139526367188,0.267238885164261
"S014",0.305686733953857,1.77691316604614,"fast",171,2891,0.351379433631897,TRUE,45,0.443290174007416,-664.069946289062,-380.759033203125,-0.390731751918793
"S014",0.300461714553833,1.88233828544617,"fast",172,3063,0.351015480041504,TRUE,46,0.533045768737793,-692.346008300781,-407.422515869141,0.522499203681946
"S014",0.322542541313171,1.41025745868683,"fast",168,3231,0.3482228099823,TRUE,47,0.435037165880203,739.970581054688,-97.413200378418,-0.930417835712433
"S014",0.319423823165893,1.86287617683411,"fast",168,168,0.345430139923096,TRUE,48,0.610580861568451,-724.594787597656,-222.117172241211,0.104527696967125
"S014",-0.553637969970703,2.6031379699707,"early",-100,68,0.344290466499328,FALSE,48,0,0,0,0
"S014",0.363893520355224,2.43560647964478,"slow",0,68,0.344290466499328,TRUE,49,0.61247318983078,-689.274963378906,-341.140472412109,0.317305505275726
"S014",0.515331232070923,2.73416876792908,"slow",0,68,0.345430139923096,TRUE,50,0.600471913814545,-500.550994873047,-363.909851074219,-1
"S014",0.361032663400268,1.80516743659973,"slow",0,68,0.3482228099823,TRUE,51,0.450470924377441,-623.31591796875,-62.3635864257812,-0.737277984619141
"S014",0.327852615301513,2.88844728469849,"fast",167,235,0.351015480041504,TRUE,52,0.520313501358032,-416.203002929688,67.4491271972656,0.963630318641663
"S014",0.307004429490662,1.69229567050934,"fast",171,406,0.3482228099823,TRUE,53,0.423783004283905,-395.707336425781,-262.041748046875,-0.906307458877563
"S014",0.345000295965576,1.13769960403442,"fast",163,569,0.345430139923096,TRUE,54,0.457202136516571,-644.447631835938,-314.895111083984,-0.970295548439026
"S014",0.272309660475159,1.47709023952484,"fast",177,746,0.345215217944336,TRUE,55,0.480561792850494,-447.183135986328,-298.03271484375,0.86602509021759
"S014",0.274356918580627,1.20854318141937,"fast",176,922,0.345000295965576,TRUE,56,0.628117024898529,-693.310913085938,-226.989959716797,0.798635959625244
"S014",0.296736585617065,1.35276341438293,"fast",172,1094,0.344075544520569,TRUE,57,0.511544108390808,745.200378417969,3.96922302246094,-0.608760833740234
"S014",0.300829314231873,1.04817068576813,"fast",171,1265,0.343150793075561,TRUE,58,0.373717784881592,414.397674560547,-431.738037109375,-0.793353855609894
"S014",0.291549104444885,1.02455079555511,"fast",173,1438,0.342940703582763,TRUE,59,0.650834262371063,-604.084228515625,-153.236755371094,0.121868580579758
"S014",0.296293728637695,1.9365062713623,"fast",172,1610,0.342730614089966,TRUE,60,0.348096311092377,-375.501770019531,-108.846717834473,0.909961640834808
"S014",0.352195253427124,2.38050484657288,"slow",0,1610,0.342206213024902,TRUE,61,0.538061916828156,670.979370117188,-207.032073974609,-0.438370436429977
"S014",0.338311624908447,3.99458837509155,"fast",164,1774,0.342730614089966,TRUE,62,0.614350020885468,-464.188568115234,-165.117141723633,0.207910984754562
"S014",0.366212489318848,3.83348751068115,"slow",0,1774,0.342206213024902,TRUE,63,0.376828581094742,-675.533752441406,-332.239868164062,0.317305356264114
"S014",0.507005438613891,3.94279456138611,"slow",0,1774,0.342730614089966,TRUE,64,0.352575123310089,-770.096740722656,-150.747528076172,-0.156433761119843
"S014",0.388965372467041,1.76043462753296,"slow",0,1774,0.342940703582763,TRUE,65,0.527119934558868,722.008239746094,-156.799407958984,-0.97629588842392
"S014",0.337938074493408,3.31146192550659,"fast",164,1938,0.343150793075561,TRUE,66,0.338809967041016,520.693969726562,-231.955932617188,0.350206762552261
"S014",0.350181634902954,2.48281836509705,"slow",0,1938,0.342940703582763,TRUE,67,0.310343563556671,692.900207519531,176.695236206055,0.580703616142273
"S014",0.334228524017334,1.96457147598267,"fast",165,2103,0.343150793075561,TRUE,68,0.547936618328094,551.683349609375,-229.381164550781,-0.923879206180573
"S014",0.313067029571533,2.45303297042847,"fast",169,2272,0.342940703582763,TRUE,69,0.611783921718597,447.614471435547,-363.420745849609,0.75470906496048
"S014",0.337444551467895,2.9455554485321,"fast",164,2436,0.342730614089966,TRUE,70,0.655082523822784,486.596954345703,-113.461280822754,0.991444826126099
"S014",0.309906509835815,2.80619359016418,"fast",170,2606,0.342206213024902,TRUE,71,0.660919964313507,435.305603027344,-367.750213623047,0.999847710132599
"S014",0.270076634597778,3.42962336540222,"fast",177,2783,0.341681811959839,TRUE,72,0.585823535919189,-516.123352050781,-212.753219604492,-0.0958448946475983
"S014",0.363298302841186,2.10290169715881,"slow",0,2783,0.339996718434143,TRUE,73,0.412554681301117,-512.05029296875,-180.988800048828,-0.906308174133301
"S014",0.380788715744019,1.68511128425598,"slow",0,2783,0.341681811959839,TRUE,74,0.567197442054749,435.134399414062,77.5025634765625,1
"S014",0.301565126419067,2.91493487358093,"fast",171,2954,0.342206213024902,TRUE,75,0.630341291427612,660.221740722656,-350.832794189453,0.0871567279100418
"S014",0.334815342385864,3.09778475761414,"fast",165,3119,0.341681811959839,TRUE,76,0.59758049249649,-428.831939697266,-224.311141967773,-0.798634946346283
"S014",0.324051510810852,1.72544848918915,"fast",167,3286,0.339996718434143,TRUE,77,0.353013455867767,-578.003051757812,-97.8616714477539,-0.999847710132599
"S014",0.343721440751648,1.67237865924835,"slow",0,3286,0.338311624908447,TRUE,78,0.673968970775604,712.177734375,-235.190444946289,-0.537300527095795
"S014",0.313256586019897,2.3695433139801,"fast",169,3455,0.339996718434143,TRUE,79,0.649875223636627,-433.393432617188,-31.2206134796143,0.917060613632202
"S014",0.329877534866333,3.13612246513367,"fast",165,3620,0.338311624908447,TRUE,80,0.566228330135345,-656.414184570312,-239.827972412109,-0.258817821741104
"S014",0.382690962219238,2.33320903778076,"slow",0,3620,0.338124849700927,TRUE,81,0.499207019805908,607.445495605469,-188.202362060547,-0.920505404472351
"S014",0.403654768562317,1.12894523143768,"slow",0,3620,0.338311624908447,TRUE,82,0.487168669700623,-739.906860351562,-409.242950439453,-0.887011408805847
"S014",0.372234708023071,3.09396529197693,"slow",0,3620,0.339996718434143,TRUE,83,0.611813306808472,527.540771484375,-143.773483276367,-0.0523372292518616
"S014",0.448438117654419,3.63436198234558,"slow",0,3620,0.341681811959839,TRUE,84,0.465858221054077,677.449645996094,74.4843597412109,0.99939090013504
"S014",0.340223415756226,3.67567658424377,"fast",164,3784,0.342206213024902,TRUE,85,0.461534261703491,583.726379394531,-64.5273513793945,0.981627464294434
"S014",0.303938257217407,3.34556174278259,"fast",171,3955,0.341681811959839,TRUE,86,0.355977177619934,-532.713745117188,-375.438873291016,0.622515618801117
"S014",0.394841481835937,2.30445861816406,"slow",0,3955,0.340952613858032,TRUE,87,0.515237331390381,-646.01416015625,-283.980529785156,-0.991445064544678
"S014",0.384241567666626,1.58195853233337,"slow",0,3955,0.341681811959839,TRUE,88,0.622895658016205,459.015319824219,-365.223388671875,-0.976296365261078
"S014",0.371676272964478,1.87792372703552,"slow",0,3955,0.342206213024902,TRUE,89,0.69744998216629,-481.984100341797,-101.114013671875,-0.909961879253387
"S014",0.350690856933594,2.21530914306641,"slow",0,3955,0.342730614089966,TRUE,90,0.443047940731049,-524.852416992188,85.7774353027344,0.948323249816895
"S014",0.34131175874939,1.77478814125061,"fast",164,4119,0.342940703582763,TRUE,91,0.578761339187622,621.607666015625,-71.6016387939453,0.987688183784485
"S014",0.411753975350952,2.28734612464905,"slow",0,4119,0.342730614089966,TRUE,92,0.410453498363495,-766.096557617188,-395.638580322266,0.793354153633118
"S014",0.302555573709106,2.01334452629089,"fast",171,4290,0.342940703582763,TRUE,93,0.591094791889191,-693.951965332031,-209.889709472656,0.694659352302551
"S014",0.391393053054809,3.75810694694519,"slow",0,4290,0.342730614089966,TRUE,94,0.386508762836456,-610.680908203125,-222.731750488281,-0.909960746765137
"S014",0.350069372940063,3.23273062705994,"slow",0,4290,0.342940703582763,TRUE,95,0.516217947006226,550.44140625,-250.296752929688,-0.21644090116024
"S014",0.435632931709289,1.71386706829071,"slow",0,4290,0.343150793075561,TRUE,96,0.350727736949921,448.437255859375,164.80680847168,0.233446702361107
"S014",0.317693058013916,1.04830694198608,"fast",168,4458,0.343436116913605,TRUE,97,0.596314489841461,-732.577514648438,-149.339660644531,-0.819152891635895
"S014",0.320684599359131,3.17891550064087,"fast",168,4626,0.343150793075561,TRUE,98,0.694483578205109,592.83837890625,-160.326766967773,0.594821691513062
"S014",0.331887519781494,1.30091238021851,"fast",166,4792,0.342940703582763,TRUE,99,0.40447261929512,-593.617004394531,-373.535675048828,0.906307220458984
"S014",0.347578141784668,3.51752185821533,"slow",0,4792,0.342730614089966,TRUE,100,0.610648334026337,635.294372558594,-1.67334365844727,0.707107782363892
"S014",0.380236149215698,2.5026638507843,"slow",0,4792,0.342940703582763,TRUE,101,0.560474693775177,-501.84716796875,-306.509399414062,-0.814116299152374
"S014",0.337043230819702,2.5957567691803,"fast",165,4957,0.343150793075561,TRUE,102,0.510980844497681,-744.860046386719,-3.39236450195312,0.913544952869415
"S014",0.350622313308716,2.28217768669128,"slow",0,4957,0.342940703582763,TRUE,103,0.675934851169586,482.961303710938,-158.132034301758,0.694659411907196
"S014",0.346212555258179,1.51998734474182,"slow",0,4957,0.343150793075561,TRUE,104,0.647836625576019,571.84326171875,-243.752487182617,-0.522497475147247
"S014",0.472934957067871,2.00996494293213,"slow",0,4957,0.343436116913605,TRUE,105,0.335456073284149,505.019805908203,-221.947998046875,-0.537300705909729
"S014",0.289323492431641,1.32607650756836,"fast",174,5131,0.343721440751648,TRUE,106,0.427384316921234,-568.214782714844,104.948654174805,-0.492424696683884
"S076",0.365605558395385,3.79839444160461,"fast",152,152,0.375,TRUE,1,0.450382709503174,-751.555358886719,-250.946899414062,0.37460657954216
"S076",0.320074438095093,1.12892556190491,"fast",170,322,0.365605558395385,TRUE,2,0.696751296520233,392.447998046875,-104.317222595215,0.507538378238678
"S076",0.327362924575806,2.75363707542419,"fast",166,488,0.342839998245239,TRUE,3,0.609532654285431,-731.11669921875,-73.0610198974609,-0.965925872325897
"S076",0.284354278564453,3.76264572143555,"fast",173,661,0.327362924575806,TRUE,4,0.580095648765564,-388.758361816406,-309.463623046875,-0.878817200660706
"S076",0.269602214813232,2.99239778518677,"fast",175,836,0.323718681335449,TRUE,5,0.348756909370422,-854.995666503906,-139.758087158203,-0.573576509952545
"S076",0.348323938369751,2.74867606163025,"slow",0,836,0.320074438095093,TRUE,6,0.557715892791748,549.728942871094,-13.7188301086426,0.984807789325714
"S076",0.501366256713867,1.19763374328613,"slow",0,836,0.323718681335449,TRUE,7,0.550784468650818,-492.414611816406,-234.027084350586,0.987688422203064
"S076",0.278297319412231,1.98670268058777,"fast",174,1010,0.327362924575806,TRUE,8,0.555696368217468,685.650390625,-325.550872802734,0.70090925693512
"S076",0.33208203125,1.06591796875,"slow",0,1010,0.323718681335449,TRUE,9,0.68068915605545,-739.619934082031,-135.580871582031,0.422618240118027
"S076",0.278453060150146,3.71754693984985,"fast",174,1184,0.327362924575806,TRUE,10,0.325775802135468,518.604431152344,90.2341003417969,-0.69465833902359
"S076",0.274666330337524,3.22233366966248,"fast",174,1358,0.323718681335449,TRUE,11,0.537955045700073,-714.154479980469,66.3862075805664,0.999390840530396
"S076",0.329994644165039,3.33400535583496,"slow",0,1358,0.320074438095093,TRUE,12,0.430009454488754,-473.010986328125,-305.128662109375,0.241921693086624
"S076",0.339999627113342,1.05900037288666,"slow",0,1358,0.323718681335449,TRUE,13,0.491889417171478,-546.593811035156,34.9637451171875,0.121869131922722
"S076",0.276585401535034,1.48741459846497,"fast",174,1532,0.327362924575806,TRUE,14,0.592862606048584,-692.76513671875,-101.585380554199,-0.382683634757996
"S076",0.30675129699707,2.39124870300293,"fast",168,1700,0.323718681335449,TRUE,15,0.48950731754303,553.051147460938,-394.995849609375,-0.422618061304092
"S076",0.284645658493042,1.74635434150696,"fast",172,1872,0.320074438095093,TRUE,16,0.35682076215744,668.183166503906,98.5266418457031,0.731353640556335
"S076",0.323690046310425,2.74030995368958,"slow",0,1872,0.313412867546081,TRUE,17,0.379596203565598,694.827026367188,9.60971832275391,-0.743144989013672
"S076",0.333293286323547,1.18270671367645,"slow",0,1872,0.320074438095093,TRUE,18,0.312112987041473,-388.846160888672,-81.1608657836914,-0.927183866500854
"S076",0.271413999557495,1.8595860004425,"fast",175,2047,0.321882242202759,TRUE,19,0.362066388130188,-814.740966796875,33.8622817993164,0.224951207637787
"S076",0.283431440353394,2.29756855964661,"fast",172,2219,0.320074438095093,TRUE,20,0.370962530374527,-355.709106445312,-330.315979003906,0.147809192538261
"S076",0.275556505203247,3.18744349479675,"fast",173,2392,0.313412867546081,TRUE,21,0.484053254127502,671.0068359375,-304.406036376953,-0.998134851455688
"S076",0.298653322219848,2.08234667778015,"fast",167,2559,0.30675129699707,TRUE,22,0.578798413276672,-782.661437988281,-54.5952491760254,0.99939090013504
"S076",0.342669324874878,3.98733067512512,"slow",0,0,0.302702309608459,TRUE,23,0.44603967666626,-819.273498535156,-266.485961914062,0.669130563735962
"S076",0.331470376014709,1.09952962398529,"slow",0,0,0.30675129699707,TRUE,24,0.382608860731125,425.514404296875,147.276657104492,-0.642787754535675
"S076",0.305870832443238,3.70812916755676,"fast",167,167,0.313412867546081,TRUE,25,0.533133685588837,-352.224822998047,-183.403411865234,0.0610485672950745
"S076",0.475733770370483,1.73826622962952,"slow",0,167,0.30675129699707,TRUE,26,0.395141184329987,601.0859375,121.004768371582,0.0610485672950745
"S076",0.298259572982788,2.53174042701721,"fast",168,335,0.313412867546081,TRUE,27,0.373605221509933,-583.377197265625,97.5167541503906,0.902585327625275
"S076",0.331572410583496,2.7654275894165,"slow",0,335,0.30675129699707,TRUE,28,0.392203718423843,-424.020538330078,-306.115295410156,0.16504755616188
"S076",0.337604663848877,2.46039533615112,"slow",0,335,0.313412867546081,TRUE,29,0.565997242927551,494.573577880859,-5.98258209228516,-0.587785184383392
"S076",0.329393112182617,3.98260688781738,"slow",0,335,0.320074438095093,TRUE,30,0.474885702133179,819.712524414062,-377.628448486328,0.713250339031219
"S076",0.289335645675659,1.57466435432434,"fast",171,506,0.321882242202759,TRUE,31,0.504848837852478,696.80908203125,-183.093292236328,-0.933580338954926
"S076",0.313905132293701,3.5990948677063,"fast",166,672,0.320074438095093,TRUE,32,0.346370458602905,805.978454589844,48.23828125,0.936672151088715
"S076",0.349849357604981,1.66515064239502,"slow",0,672,0.316989785194397,TRUE,33,0.48834890127182,-395.172790527344,-281.247100830078,-0.5
"S076",0.297685454368591,1.55031454563141,"fast",169,841,0.320074438095093,TRUE,34,0.420322269201279,-316.631561279297,50.3143310546875,-0.95105654001236
"S076",0.326290548324585,2.88670945167542,"slow",0,841,0.316989785194397,TRUE,35,0.500980615615845,468.041595458984,-51.0267486572266,-0.342020124197006
"S076",0.287577110290527,2.59342288970947,"fast",171,1012,0.320074438095093,TRUE,36,0.687165915966034,602.526245117188,-161.428970336914,0.0174524784088135
"S076",0.312781751632691,3.90021824836731,"fast",166,1178,0.316989785194397,TRUE,37,0.695828855037689,423.166442871094,-242.90852355957,0.906307876110077
"S076",-1.96950098609924,3.20350098609924,"early",-100,1078,0.313905132293701,FALSE,37,0,0,0,0
"S076",0.275511531829834,3.50448846817017,"fast",173,1251,0.313905132293701,TRUE,38,0.339130640029907,-528.281616210938,81.7748031616211,-0.62251478433609
"S076",0.314119573593139,2.98188042640686,"slow",0,1251,0.313343441963196,TRUE,39,0.593435823917389,518.070373535156,-128.321487426758,-0.688354671001434
"S076",0.305222587585449,3.52477741241455,"fast",167,1418,0.313905132293701,TRUE,40,0.632931888103485,-438.943359375,-270.515899658203,-0.848048210144043
"S076",0.276177190780639,1.82282280921936,"fast",173,1591,0.313343441963196,TRUE,41,0.683525502681732,-465.851928710938,-227.123977661133,-0.104528397321701
"S076",0.271313831329346,2.37568616867065,"fast",174,1765,0.312781751632691,TRUE,42,0.453449308872223,-551.736389160156,-325.468414306641,0.515038073062897
"S076",0.276731567382812,3.30326843261719,"fast",173,1938,0.30976652431488,TRUE,43,0.439637154340744,-339.284393310547,119.443542480469,-0.438371032476425
"S076",0.362723173141479,2.65127682685852,"slow",0,1938,0.30675129699707,TRUE,44,0.352007031440735,761.993041992188,-229.127487182617,-0.814115464687347
"S076",0.348740631103515,2.13225936889648,"slow",0,1938,0.30976652431488,TRUE,45,0.445266008377075,451.317321777344,106.944068908691,0.559192776679993
"S076",0.269041584014893,2.17895841598511,"fast",174,2112,0.312781751632691,TRUE,46,0.414455056190491,402.612823486328,-383.001861572266,-0.507538199424744
"S076",0.272310245513916,2.99068975448608,"fast",173,2285,0.30976652431488,TRUE,47,0.354655504226685,-332.275604248047,-98.2728805541992,-0.898794114589691
"S076",0.332907959938049,1.31409204006195,"slow",0,2285,0.30675129699707,TRUE,48,0.518430411815643,-753.221923828125,-27.975944519043,0.930417537689209
"S076",0.306329710006714,1.27567028999329,"fast",166,2451,0.30976652431488,TRUE,49,0.468189477920532,-537.880981445312,77.7340469360352,0.233445554971695
"S076",0.283188611984253,2.84881138801575,"fast",171,2622,0.30675129699707,TRUE,50,0.472398221492767,365.15576171875,-345.024566650391,-0.891006469726562
"S076",0.326099615097046,3.65390038490295,"slow",0,2622,0.306540503501892,TRUE,51,0.365997970104218,-384.753967285156,-128.839538574219,0.587785005569458
"S076",0.25906226348877,3.93793773651123,"fast",176,2798,0.30675129699707,TRUE,52,0.568167507648468,615.560729980469,-132.482498168945,0.61566174030304
"S076",0.332709840774536,3.79629015922546,"slow",0,2798,0.306540503501892,TRUE,53,0.546322882175446,-693.147033691406,8.573486328125,-0.522498309612274
"S076",0.276688890457153,3.05331110954285,"fast",172,2970,0.30675129699707,TRUE,54,0.670568764209747,682.695068359375,-144.347442626953,-0.788011014461517
"S076",0.309243096351624,1.65475690364838,"slow",0,2970,0.306540503501892,TRUE,55,0.407809466123581,-675.61328125,77.405517578125,0.927183747291565
"S076",0.273294040679931,2.77370595932007,"fast",173,3143,0.30675129699707,TRUE,56,0.528043866157532,-480.269958496094,57.2753257751465,0.923879683017731
"S076",0.351276769638061,1.41372323036194,"slow",0,3143,0.306540503501892,TRUE,57,0.489090204238892,339.853210449219,-372.482360839844,0.898794174194336
"S076",0.320472690582275,2.37652730941772,"slow",0,3143,0.30675129699707,TRUE,58,0.583167850971222,-486.525085449219,-138.520721435547,-0.953716933727264
"S076",0.329552585601807,1.20244741439819,"slow",0,3143,0.307997196674347,TRUE,59,0.686005175113678,726.060974121094,-56.5946273803711,-0.507538557052612
"S076",0.329081842422485,3.71791815757751,"slow",0,3143,0.309243096351624,TRUE,60,0.367984861135483,739.59326171875,-310.293914794922,0.782607972621918
"S076",0.274179321289062,3.00682067871094,"fast",173,3316,0.311012423992157,TRUE,61,0.340019106864929,595.197448730469,-348.433990478516,0.77714616060257
"S076",0.320237133026123,2.12676286697388,"slow",0,0,0.309243096351624,TRUE,62,0.684443414211273,-510.947540283203,-247.284820556641,-0.224950760602951
"S076",0.321995826721191,3.82400417327881,"slow",0,0,0.311012423992157,TRUE,63,0.520773708820343,-471.136627197266,-157.609359741211,-0.00872685015201569
"S076",0.362085611343384,1.76991438865662,"slow",0,0,0.312781751632691,TRUE,64,0.374391466379166,-405.807769775391,-136.006317138672,0.989015817642212
"S076",0.2708909740448,1.8281090259552,"fast",174,174,0.313343441963196,TRUE,65,0.669532001018524,473.460388183594,-178.311065673828,0.968147754669189
"S076",0.297051412582397,2.2849485874176,"fast",169,343,0.312781751632691,TRUE,66,0.694246470928192,-537.230041503906,-185.930221557617,0.422618627548218
"S076",0.304278809547424,1.37772119045258,"fast",167,510,0.311012423992157,TRUE,67,0.610041856765747,-561.863037109375,-221.754913330078,-0.942641615867615
"S076",0.32306901550293,1.14293098449707,"slow",0,510,0.309243096351624,TRUE,68,0.578085839748383,-558.688659667969,-232.873031616211,-0.754709839820862
"S076",0.282215400695801,3.8137845993042,"fast",171,681,0.311012423992157,TRUE,69,0.442717343568802,459.2666015625,-179.557327270508,0.656058847904205
"S076",0.366933828353882,2.31406617164612,"slow",0,681,0.309243096351624,TRUE,70,0.410231381654739,803.402648925781,-266.35546875,0.999847769737244
"S076",0.278191572189331,2.40280842781067,"fast",172,853,0.311012423992157,TRUE,71,0.350724935531616,830.846557617188,-299.167175292969,0.754709780216217
"S076",0.33318625164032,1.74881374835968,"slow",0,853,0.309243096351624,TRUE,72,0.412201821804047,436.500915527344,-372.520385742188,0.522498905658722
"S076",0.360118427276611,1.05488157272339,"slow",0,853,0.311012423992157,TRUE,73,0.563012480735779,501.130493164062,-7.81247329711914,-0.963630378246307
"S076",0.376153292655945,1.68884670734406,"slow",0,853,0.312781751632691,TRUE,74,0.405977219343185,-651.242614746094,-17.2426681518555,0.956304669380188
"S076",0.30816178894043,1.92283821105957,"fast",166,1019,0.313343441963196,TRUE,75,0.479247629642487,581.394897460938,-212.879058837891,0.342020511627197
"S076",0.282296766281128,3.53170323371887,"fast",172,1191,0.312781751632691,TRUE,76,0.640340149402618,-582.400390625,-203.52571105957,-0.870355546474457
"S076",0.319904047012329,2.06109595298767,"slow",0,1191,0.311012423992157,TRUE,77,0.605909168720245,-505.619018554688,25.4847221374512,-0.930417776107788
"S076",0.298871784210205,2.48112821578979,"fast",168,1359,0.312781751632691,TRUE,78,0.375501781702042,-611.39208984375,-152.753021240234,0.996917366981506
"S076",0.283810781478882,1.71518921852112,"fast",171,1530,0.311012423992157,TRUE,79,0.662157773971558,460.585235595703,-177.415710449219,-0.760405540466309
"S076",0.298643953323364,1.93335604667664,"fast",168,1698,0.309243096351624,TRUE,80,0.375947088003159,-745.476196289062,67.8511352539062,-0.997564077377319
"S076",0.285837425231934,2.67816257476807,"fast",170,1868,0.308702442646027,TRUE,81,0.472439587116241,559.35986328125,-311.6171875,-0.636078774929047
"S076",0.299490648269653,3.08150935173035,"fast",167,2035,0.30816178894043,TRUE,82,0.631247580051422,-659.874206542969,-146.542541503906,0.760405600070953
"S076",0.267323705673218,2.67967629432678,"fast",174,2209,0.30745654296875,TRUE,83,0.625103771686554,-606.046264648438,-300.470123291016,0.996917426586151
"S076",0.308688947677612,2.48831105232239,"slow",0,2209,0.30675129699707,TRUE,84,0.374915331602097,384.011566162109,-337.1103515625,0.88294792175293
"S076",0.332499303817749,2.08250069618225,"slow",0,2209,0.30745654296875,TRUE,85,0.336874186992645,-820.618957519531,9.48748779296875,0.0261775553226471
"S076",0.270642143249512,1.51035785675049,"fast",174,2383,0.30816178894043,TRUE,86,0.414793461561203,424.796813964844,123.179336547852,-0.927183628082275
"S076",0.0592999343872069,3.70370006561279,"fast",200,2583,0.30745654296875,TRUE,87,0.565525949001312,-741.682006835938,-275.371978759766,0.284014731645584
"S076",0.416722724914551,1.18127727508545,"slow",0,2583,0.30675129699707,TRUE,88,0.586895525455475,643.787048339844,-51.6322975158691,0.350208103656769
"S076",0.289566608428955,3.35643339157104,"fast",169,2752,0.30745654296875,TRUE,89,0.497021555900574,-755.8330078125,-50.6388778686523,-0.861628770828247
"S076",0.395413040161133,1.05358695983887,"slow",0,2752,0.30675129699707,TRUE,90,0.663085043430328,440.723358154297,-266.328216552734,-0.958819985389709
"S076",0.274871641159057,1.95612835884094,"fast",173,2925,0.30745654296875,TRUE,91,0.477953553199768,-706.242004394531,-87.9595947265625,-0.861629545688629
"S076",0.318380947113037,3.92661905288696,"slow",0,2925,0.30675129699707,TRUE,92,0.572924494743347,721.733154296875,-335.759216308594,0.707106292247772
"S076",0.622834011077881,3.72316598892212,"missed",0,2925,0.30745654296875,FALSE,92,0.488636910915375,-547.676818847656,21.22802734375,0.00872719287872314
"S076",0.328878845214843,3.33512115478516,"slow",0,2925,0.30816178894043,TRUE,93,0.392932236194611,800.344665527344,-286.278625488281,0.222909271717072
"S076",0.297623100280762,2.51737689971924,"fast",168,3093,0.308425368309021,TRUE,94,0.578202128410339,-506.519653320312,-273.608093261719,0.243954226374626
"S076",0.305238847732544,3.57476115226746,"fast",166,3259,0.30816178894043,TRUE,95,0.38629674911499,-655.912841796875,-70.5980224609375,-0.960682153701782
"S076",0.409960275650024,1.27103972434998,"slow",0,3259,0.30745654296875,TRUE,96,0.325061023235321,681.956115722656,-152.429092407227,0.119789630174637
"S076",0.323268507003784,2.67473149299622,"slow",0,3259,0.30816178894043,TRUE,97,0.328600823879242,452.253967285156,107.282653808594,0.810246765613556
"S076",0.338110507965088,2.67588949203491,"slow",0,3259,0.308425368309021,TRUE,98,0.45782744884491,627.679504394531,17.3864517211914,0.360323160886765
"S076",0.364477249145508,3.03152275085449,"slow",0,3259,0.308688947677612,TRUE,99,0.605635702610016,-534.17626953125,-264.529632568359,-0.935936450958252
"S076",0.437177592277527,1.29382240772247,"slow",0,3259,0.308966022014618,TRUE,100,0.333230078220367,486.169189453125,173.846939086914,0.8819620013237
"S076",0.624509117126465,1.87249088287354,"missed",0,3259,0.309243096351624,FALSE,100,0.320548117160797,-421.76318359375,114.533737182617,0.853733062744141
"S076",0.312505187988281,2.25249481201172,"slow",0,3259,0.311012423992157,TRUE,101,0.535171687602997,-418.88671875,18.2234954833984,0.726334154605865
"S076",0.292559804916382,1.27244019508362,"fast",169,3428,0.312505187988281,TRUE,102,0.509214103221893,-607.040710449219,25.5140953063965,0.978436768054962
"S076",0.285886253356933,2.12811374664307,"fast",171,3599,0.310874142169952,TRUE,103,0.330397605895996,-469.420959472656,69.2416534423828,0.990461349487305
"S076",0.313020004272461,1.65097999572754,"slow",0,3599,0.309243096351624,TRUE,104,0.416896551847458,433.044616699219,56.6147918701172,0.0596557557582855
"S076",0.299347127914428,2.11465287208557,"fast",168,3767,0.310874142169952,TRUE,105,0.42814114689827,-513.868041992188,-124.683624267578,-0.99046128988266
"S076",0.341028329849243,2.75597167015076,"slow",0,3767,0.309243096351624,TRUE,106,0.648013055324554,-664.506958007812,-58.7368927001953,0.954135656356812
"S076",0.401371342658996,1.430628657341,"slow",0,3767,0.310874142169952,TRUE,107,0.381701052188873,721.890380859375,-422.209289550781,0.68097722530365
"S076",0.26054928779602,2.21945071220398,"fast",176,3943,0.312505187988281,TRUE,108,0.609102249145508,-518.132446289062,-347.335296630859,-0.38397216796875
"S076",0.272745613098144,3.55625438690186,"fast",173,4116,0.310874142169952,TRUE,109,0.561882615089417,-464.490112304688,26.3419208526611,-0.579566359519958
"S076",0.320037496566772,3.09296250343323,"slow",0,4116,0.309243096351624,TRUE,110,0.603319406509399,615.878112792969,-300.53759765625,0.999341189861298
"S076",0.31571960067749,3.98028039932251,"slow",0,4116,0.310874142169952,TRUE,111,0.5736163854599,-676.259643554688,-348.072113037109,-0.695661544799805
"S076",0.312258861541748,2.23574113845825,"fast",165,4281,0.312505187988281,TRUE,112,0.456430912017822,464.008972167969,-49.4936828613281,-0.901983678340912
"S076",0.313670989990234,3.78332901000977,"slow",0,4281,0.312382024765015,TRUE,113,0.321847379207611,568.343627929688,81.6116561889648,0.999619841575623
"S076",0.632437107086182,1.46456289291382,"missed",0,4281,0.312505187988281,FALSE,113,0.654196679592133,-447.843963623047,-156.782775878906,-0.351514160633087
"S076",0.289592588424683,3.07340741157532,"fast",170,4451,0.312643469810486,TRUE,114,0.5943643450737,741.751892089844,-161.005187988281,0.729685485363007
"S023",0.468872077941894,2.56412792205811,"slow",0,0,0.375,TRUE,1,0.531344175338745,554.927185058594,39.6194190979004,0.731353759765625
"S023",-2.04030340576172,3.15630340576172,"early",-100,0,0.468872077941894,FALSE,1,0,0,0,0
"S023",0.309484210968018,3.20651578903198,"fast",179,179,0.468872077941894,TRUE,2,0.675065934658051,-387.756988525391,-365.407348632812,-0.477158784866333
"S023",0.330725509643555,2.85127449035645,"fast",171,350,0.389178144454956,TRUE,3,0.486981630325317,537.889343261719,-21.1443176269531,-0.748955726623535
"S023",0.296788110733032,2.71821188926697,"fast",171,521,0.330725509643555,TRUE,4,0.682501494884491,-389.669006347656,-52.0078201293945,-0.743144869804382
"S023",0.655034971237182,3.29496502876282,"missed",0,521,0.320104860305786,FALSE,4,0.622987568378448,573.636108398438,-102.004600524902,0.99939090013504
"S023",0.345594310760498,3.5544056892395,"slow",0,521,0.330725509643555,TRUE,5,0.457363367080688,375.292053222656,-256.78857421875,0.827864527702332
"S023",0.379301054954529,1.00369894504547,"slow",0,521,0.338159910202026,TRUE,6,0.626552045345306,-606.269958496094,-380.698364257812,-0.620874047279358
"S023",0.280685234069824,2.01931476593018,"fast",175,696,0.345594310760498,TRUE,7,0.358787059783936,-510.606872558594,-127.334884643555,0.323586851358414
"S023",0.359608140945435,2.90639185905457,"slow",0,696,0.338159910202026,TRUE,8,0.609974920749664,645.612548828125,-215.654907226562,0.99637508392334
"S023",0.279775324821472,1.58622467517853,"fast",176,872,0.345594310760498,TRUE,9,0.656562566757202,-459.345336914062,-303.847808837891,-0.735860526561737
"S023",0.315586503982544,3.06841349601746,"fast",168,1040,0.338159910202026,TRUE,10,0.523402988910675,513.990844726562,-75.3221893310547,-0.999997794628143
"S023",0.370346315383911,1.66265368461609,"slow",0,1040,0.330725509643555,TRUE,11,0.400400042533875,512.804626464844,12.3951110839844,-0.455855965614319
"S023",0.279469274520874,3.81953072547913,"fast",175,1215,0.338159910202026,TRUE,12,0.679192245006561,533.787841796875,12.6672821044922,-0.294374287128448
"S023",0.319156742095947,3.03084325790405,"fast",166,1381,0.330725509643555,TRUE,13,0.362693965435028,293.699798583984,15.2058258056641,0.997708022594452
"S023",0.663774934768677,3.85222506523132,"missed",0,1381,0.324941125869751,FALSE,13,0.541404724121094,325.032867431641,-310.362121582031,0.970800399780273
"S023",0.46070220375061,3.13829779624939,"slow",0,1381,0.330725509643555,TRUE,14,0.497321903705597,684.030517578125,-112.858734130859,-0.577003061771393
"S023",0.327930267333985,3.75506973266602,"fast",166,1547,0.338159910202026,TRUE,15,0.337868630886078,-585.584594726562,171.069595336914,0.987024366855621
"S023",0.34206491279602,2.99093508720398,"slow",0,1547,0.330725509643555,TRUE,16,0.319134473800659,797.565002441406,-351.829162597656,-0.577287435531616
"S023",0.295541818618774,2.03745818138123,"fast",172,1719,0.336395211219787,TRUE,17,0.584993004798889,-584.768676757812,-129.430694580078,-0.229031026363373
"S023",0.67359539604187,1.09240460395813,"missed",0,1719,0.330725509643555,FALSE,17,0.476756572723389,655.037719726562,79.9007720947266,0.831566333770752
"S023",0.328364181518555,2.72163581848145,"fast",165,1884,0.336395211219787,TRUE,18,0.614703118801117,-714.986206054688,-13.3489570617676,-0.740101099014282
"S023",0.317068068504333,1.49993193149567,"fast",167,2051,0.330725509643555,TRUE,19,0.686793029308319,508.283905029297,-77.3025894165039,0.728490233421326
"S023",0.310308614730835,3.65569138526917,"fast",168,2219,0.329544845581055,TRUE,20,0.403024315834045,-323.703552246094,-69.207878112793,0.876643002033234
"S023",0.343609948976135,1.62239015102386,"slow",0,2219,0.328364181518555,TRUE,21,0.699229419231415,501.672729492188,-255.237442016602,0.37848749756813
"S023",0.463758285522461,3.11924171447754,"slow",0,2219,0.329544845581055,TRUE,22,0.600497543811798,-363.001800537109,-345.259368896484,-0.465768575668335
"S023",-0.149594497680664,2.94959449768066,"early",-100,2119,0.330725509643555,FALSE,22,0,0,0,0
"S023",0.557950219154358,1.22604978084564,"slow",0,2119,0.330725509643555,TRUE,23,0.337288796901703,-425.354736328125,-58.7002410888672,-0.779775559902191
"S023",0.32687896823883,1.28912103176117,"fast",166,2285,0.336395211219787,TRUE,24,0.567936539649963,372.527648925781,-173.777770996094,0.896949768066406
"S023",0.351310634613037,2.29868936538696,"slow",0,2285,0.330725509643555,TRUE,25,0.690131604671478,484.005218505859,-279.410034179688,0.262863218784332
"S023",0.275384265899658,3.65661573410034,"fast",176,2461,0.336395211219787,TRUE,26,0.644718885421753,707.649963378906,-325.917358398438,-0.665751695632935
"S023",0.374117707252502,1.4248822927475,"slow",0,2461,0.330725509643555,TRUE,27,0.505994200706482,755.89453125,96.3224334716797,0.100361414253712
"S023",0.305674615859985,3.81032538414001,"fast",170,2631,0.336395211219787,TRUE,28,0.457139492034912,-663.910278320312,-182.566009521484,0.151951119303703
"S023",0.30260986328125,3.51239013671875,"fast",170,170,0.330725509643555,TRUE,29,0.313194155693054,657.796020507812,187.027770996094,-0.734440803527832
"S023",0.51294459438324,1.55305540561676,"slow",0,170,0.329544845581055,TRUE,30,0.589788138866425,-468.255737304688,-25.0631904602051,-0.999765872955322
"S023",0.272537914276123,2.74346208572388,"fast",176,346,0.330725509643555,TRUE,31,0.570891261100769,-438.376159667969,-385.366088867188,-0.960001111030579
"S023",0.665931676864624,3.38306832313538,"missed",0,346,0.329544845581055,FALSE,31,0.541995584964752,724.567321777344,45.7856063842773,-0.321274429559708
