"Participant","RT","ISI","Response_Type","Trial_Score","Total_Score","Threshold","Valid_Trial","Valid_Trial_Count","Stimulus_Size","Stimulus_X","Stimulus_Y","Stimulus_Orientation"
"S120",0.550862450163269,1.03103744983673,"slow",0,0,0.375,TRUE,1,0.572351634502411,-564.847045898438,48.4640502929688,0.9681476354599
"S120",1.00813850746155,3.84046149253845,"slow",0,0,0.550862450163269,TRUE,2,0.415537536144257,-440.135620117188,-77.8832244873047,0.948323667049408
"S120",0.355059696524048,2.66114020347595,"fast",185,185,0.779500478812408,TRUE,3,0.670094072818756,-579.3681640625,-212.339492797852,-1
"S120",0.444175635719299,1.0872243642807,"fast",169,354,0.550862450163269,TRUE,4,0.668322861194611,470.741821289062,-196.057708740234,-0.284015268087387
"S120",0.34320192451477,3.85549807548523,"fast",177,531,0.497519042941284,TRUE,5,0.48169881105423,766.022033691406,-329.003356933594,0.754709661006927
"S120",0.327195499093628,3.40560460090637,"fast",176,707,0.444175635719299,TRUE,6,0.323314249515533,454.847351074219,64.5939407348633,-0.461748778820038
"S120",0.302639360482788,3.31006073951721,"fast",176,883,0.399617666121673,TRUE,7,0.470049023628235,-442.567413330078,-87.1598739624023,-1
"S120",0.440901346588135,1.32449865341187,"slow",0,883,0.355059696524048,TRUE,8,0.68445497751236,567.145812988281,-263.117889404297,-0.309016823768616
"S120",0.359043424661255,2.78915667533875,"fast",167,1050,0.397980521556091,TRUE,9,0.495588600635529,475.515563964844,-282.031524658203,0.608761429786682
"S120",0.377487064416504,2.1037130355835,"slow",0,1050,0.359043424661255,TRUE,10,0.614632070064545,775.084777832031,-142.571502685547,-0.870355725288391
"S120",0.348398149435425,1.93440175056458,"fast",166,1216,0.368265244538879,TRUE,11,0.480315566062927,652.754333496094,-278.877563476562,0.156434535980225
"S120",0.285365917205811,2.72913408279419,"fast",176,1392,0.359043424661255,TRUE,12,0.460061490535736,613.85546875,-70.0272521972656,0.737277328968048
"S120",0.323865766525268,2.60863423347473,"fast",169,1561,0.357051560592651,TRUE,13,0.53317803144455,680.201538085938,-58.4256744384766,-0.104528494179249
"S120",0.421971588079834,2.17782831192017,"slow",0,1561,0.355059696524048,TRUE,14,0.541684806346893,-573.833374023438,-362.076385498047,-0.284015357494354
"S120",0.307513474710083,3.60688662528992,"fast",172,1733,0.357051560592651,TRUE,15,0.470611929893494,718.354125976562,-162.925445556641,-0.978147625923157
"S120",0.430909203910828,1.20099079608917,"slow",0,1733,0.355059696524048,TRUE,16,0.616902112960815,-707.991943359375,-30.9542999267578,0.398749113082886
"S120",0.359465013885498,2.5219349861145,"slow",0,1733,0.357051560592651,TRUE,17,0.447056651115417,732.384216308594,-58.2769775390625,0.874619722366333
"S120",0.72374804649353,1.82535195350647,"missed",0,1733,0.359043424661255,FALSE,17,0.519831657409668,609.622985839844,-223.258316040039,-0.956304728984833
"S120",0.329147933905029,1.25215196609497,"fast",168,1901,0.359254219273376,TRUE,18,0.494922816753387,391.783782958984,72.1868286132812,-0.961865484714508
"S120",0.288764420263672,2.42433547973633,"fast",175,2076,0.359043424661255,TRUE,19,0.59792572259903,518.884033203125,-98.1579284667969,-0.955659568309784
"S120",0.303607749230957,2.16079235076904,"fast",172,2248,0.357051560592651,TRUE,20,0.31456983089447,844.084289550781,-109.869911193848,-0.273522913455963
"S120",0.348026397705078,1.11747360229492,"fast",164,2412,0.355059696524048,TRUE,21,0.41346538066864,692.935546875,-157.377182006836,0.689947962760925
"S120",0.308796976470947,1.82210302352905,"fast",171,2583,0.351728922979736,TRUE,22,0.54133939743042,-443.972595214844,-81.5817260742188,-0.0458162128925323
"S120",0.311516218240357,3.79868388175964,"fast",170,170,0.348398149435425,TRUE,23,0.692417681217194,615.306823730469,-41.7199974060059,-0.70247608423233
"S120",0.358721854782104,3.2238781452179,"slow",0,170,0.348212273570252,TRUE,24,0.602747917175293,368.846710205078,-141.949234008789,0.0980343222618103
"S120",0.276455960083008,2.77334403991699,"fast",176,346,0.348398149435425,TRUE,25,0.545371651649475,-666.816589355469,-326.635284423828,0.996000707149506
"S120",0.360726068551636,3.10497403144836,"slow",0,346,0.348212273570252,TRUE,26,0.464432597160339,-303.933013916016,85.2304458618164,-0.999883651733398
"S120",0.372245376641845,3.77595472335815,"slow",0,346,0.348398149435425,TRUE,27,0.570027351379395,384.485382080078,-328.940887451172,-0.932790219783783
"S120",0.363821200888061,2.50307869911194,"slow",0,346,0.351728922979736,TRUE,28,0.682606995105743,372.391632080078,-140.369201660156,-0.747496902942657
"S120",0.270955123846436,2.52634477615356,"fast",178,524,0.355059696524048,TRUE,29,0.669004023075104,456.244171142578,-207.402053833008,0.631027698516846
"S120",0.391217624664307,2.30828237533569,"slow",0,524,0.351728922979736,TRUE,30,0.352839529514313,754.273315429688,-217.973876953125,0.827805995941162
"S120",0.321476438522339,3.74402356147766,"fast",169,693,0.355059696524048,TRUE,31,0.48130190372467,-752.328796386719,-384.408111572266,0.128345906734467
"S120",0.386525690405273,1.97817420959473,"slow",0,693,0.351728922979736,TRUE,32,0.327373683452606,-730.272155761719,-22.1444702148438,-0.520622491836548
"S120",0.35035962638855,2.20024037361145,"fast",164,857,0.355059696524048,TRUE,33,0.683742940425873,647.126953125,-167.705032348633,0.931221187114716
"S120",0.291790322930908,3.02300977706909,"fast",174,1031,0.352709661456299,TRUE,34,0.666594207286835,687.918884277344,-80.2486343383789,0.98120528459549
"S120",0.307489414215088,1.52501058578491,"fast",171,1202,0.35035962638855,TRUE,35,0.431648463010788,658.837951660156,-45.6279373168945,0.0762667804956436
"S120",0.3137321849823,1.9683678150177,"fast",170,1372,0.349378887911987,TRUE,36,0.418030709028244,413.328674316406,-368.05419921875,-0.753265202045441
"S120",0.281895570428467,3.88290452957153,"fast",175,1547,0.348398149435425,TRUE,37,0.678581655025482,706.085327148438,-197.80598449707,-0.197212725877762
"S120",0.342083216993713,1.72411668300629,"fast",164,1711,0.348212273570252,TRUE,38,0.560181021690369,-725.830444335938,-280.695556640625,0.997087478637695
"S120",0.311810498428345,3.10338950157166,"fast",170,1881,0.348026397705078,TRUE,39,0.583171308040619,-588.255798339844,3.85586547851562,0.136995315551758
"S120",0.319127626745606,2.07857227325439,"fast",168,2049,0.345614161109924,TRUE,40,0.535787045955658,-363.564117431641,-12.9408149719238,-0.998949944972992
"S120",0.401004516601562,3.59849548339844,"slow",0,2049,0.34320192451477,TRUE,41,0.664954006671906,-689.84228515625,-236.894897460938,-0.145634457468987
"S120",0.100462822286987,3.58123707771301,"fast",200,2249,0.345614161109924,TRUE,42,0.537809133529663,456.319000244141,-56.3393898010254,0.901636600494385
"S120",0.385218852996826,3.24628114700317,"slow",0,2249,0.34320192451477,TRUE,43,0.494826138019562,479.941833496094,-102.742965698242,-0.651118397712708
"S120",0.330035383605956,3.83486461639404,"fast",166,2415,0.345614161109924,TRUE,44,0.67899876832962,-559.283630371094,-287.834686279297,-0.997714996337891
"S120",0.347899481201172,1.81850051879883,"slow",0,2415,0.34320192451477,TRUE,45,0.485185086727142,-627.834838867188,-332.738250732422,-0.99332058429718
"S120",0.343434436743164,3.92186546325684,"fast",164,2579,0.345550702857971,TRUE,46,0.370902985334396,465.68212890625,55.4020538330078,0.696238279342651
"S120",0.379316822488403,2.2497832775116,"slow",0,2579,0.343434436743164,TRUE,47,0.494718730449677,-611.508056640625,-368.227722167969,-0.561014235019684
"S120",0.381127084350586,2.14997291564941,"slow",0,2579,0.345666958972168,TRUE,48,0.532031416893005,534.333068847656,-92.1507415771484,-0.997408330440521
"S120",-1.82382499084473,1.95522499084473,"early",-100,2479,0.347899481201172,FALSE,48,0,0,0,0
"S120",0.331245755004883,3.93255424499512,"fast",166,2645,0.347899481201172,TRUE,49,0.519564867019653,-799.595642089844,-368.654144287109,0.596588790416718
"S120",0.514450068228149,3.45264983177185,"slow",0,2645,0.345666958972168,TRUE,50,0.436808943748474,-473.958648681641,-346.561584472656,0.966492652893066
"S120",0.340927445983887,3.88917255401611,"fast",165,2810,0.347899481201172,TRUE,51,0.639901399612427,554.093200683594,-97.7549209594727,-0.501902878284454
"S120",0.376349838256836,2.86915016174316,"slow",0,2810,0.345666958972168,TRUE,52,0.511226058006287,766.178466796875,-109.017219543457,-0.991155505180359
"S120",0.490067975752258,1.27503192424774,"slow",0,2810,0.347899481201172,TRUE,53,0.550768256187439,-416.695373535156,-372.148284912109,0.424609899520874
"S120",0.570876593153381,1.61102330684662,"slow",0,2810,0.347962939453125,TRUE,54,0.347979724407196,658.082092285156,-370.864227294922,-0.0370967090129852
"S120",0.320580911636352,3.19191908836365,"fast",168,2978,0.348026397705078,TRUE,55,0.495778799057007,-494.608032226562,-337.724609375,-0.968695878982544
"S120",0.287924903488159,3.11067509651184,"fast",174,3152,0.347962939453125,TRUE,56,0.697582185268402,-625.997680664062,-128.878952026367,0.964215755462646
"S120",0.331146810205078,3.40165328979492,"fast",166,3318,0.347899481201172,TRUE,57,0.319680392742157,-430.804534912109,-155.925048828125,0.723859250545502
"S120",0.697055143356323,1.98444485664368,"missed",0,0,0.345666958972168,FALSE,57,0.325001120567322,-493.415191650391,-266.199829101562,0.128346085548401
"S120",-1.48720840492249,1.50180840492249,"early",-100,0,0.347899481201172,FALSE,57,0,0,0,0
"S120",0.348314788436889,3.13428521156311,"slow",0,0,0.347899481201172,TRUE,58,0.440756916999817,587.000915527344,-108.852210998535,0.985169410705566
"S120",0.333853593881225,2.44984650611877,"fast",166,166,0.347962939453125,TRUE,59,0.579607427120209,624.3173828125,-182.646438598633,-0.822937726974487
"S120",0.369705601501465,2.12859439849854,"slow",0,166,0.347899481201172,TRUE,60,0.480720341205597,667.603942871094,-119.010864257812,-0.424516260623932
"S120",0.330288936669922,3.00191116333008,"fast",166,332,0.347962939453125,TRUE,61,0.40805184841156,551.616027832031,-379.552368164062,0.827864170074463
"S120",0.37674739074707,1.05775260925293,"slow",0,332,0.347899481201172,TRUE,62,0.337102115154266,839.789916992188,3.52603149414062,-0.128448456525803
"S120",0.357747170965576,2.63965272903442,"slow",0,332,0.347962939453125,TRUE,63,0.57768702507019,546.977661132812,11.3308334350586,-0.975840389728546
"S120",0.359003970391846,3.09089612960815,"slow",0,332,0.348026397705078,TRUE,64,0.355059564113617,441.74462890625,-115.636100769043,0.667572021484375
"S120",0.325177144949341,3.50712275505066,"fast",167,499,0.348170593070984,TRUE,65,0.651676833629608,680.901489257812,-201.916458129883,0.999978005886078
"S120",0.442167513220215,1.79003238677979,"slow",0,499,0.348026397705078,TRUE,66,0.635985314846039,-657.574768066406,13.4859819412231,-0.797372758388519
"S120",0.348872346496582,2.00072765350342,"slow",0,499,0.348170593070984,TRUE,67,0.502643883228302,-672.644470214844,-212.287292480469,-0.938973963260651
"S120",0.341062997817993,3.45793700218201,"fast",165,664,0.348314788436889,TRUE,68,0.566545844078064,534.9150390625,-315.115509033203,-0.448072105646133
"S120",0.381363902664185,1.88423609733582,"slow",0,664,0.348170593070984,TRUE,69,0.697405755519867,-588.538879394531,-323.886596679688,0.989974319934845
"S120",0.352151056289673,2.78134894371033,"slow",0,664,0.348314788436889,TRUE,70,0.660442769527435,507.331451416016,-201.113616943359,-0.137097761034966
"S120",0.408028306906128,1.28927159309387,"slow",0,664,0.348356468936157,TRUE,71,0.510535001754761,-488.960601806641,-276.894775390625,-0.184295445680618
"S120",0.430735790879822,1.66706430912018,"slow",0,664,0.348398149435425,TRUE,72,0.563560366630554,656.275390625,-172.469299316406,0.999600291252136
"S120",0.359105802536011,3.35439419746399,"slow",0,664,0.348635247966003,TRUE,73,0.446306705474854,-517.151794433594,-300.177764892578,0.983634650707245
"S120",0.299314191873169,3.33388590812683,"fast",172,836,0.348872346496582,TRUE,74,0.58382910490036,-675.041381835938,-119.955390930176,0.448072075843811
"S120",0.301883154351807,3.12871694564819,"fast",172,1008,0.348635247966003,TRUE,75,0.536566734313965,638.475341796875,28.9940376281738,-0.674043834209442
"S120",0.399084574317932,1.70001542568207,"slow",0,1008,0.348398149435425,TRUE,76,0.669330298900604,501.271057128906,-44.9801445007324,-0.890053331851959
"S120",0.320432334518432,2.12766766548157,"fast",168,1176,0.348635247966003,TRUE,77,0.463356614112854,577.306335449219,115.029327392578,-0.368450075387955
"S120",0.324877332687378,3.32412266731262,"fast",168,1344,0.348398149435425,TRUE,78,0.390920877456665,-588.989440917969,-30.7845153808594,0.282005608081818
"S120",0.369876815795898,1.2446231842041,"slow",0,1344,0.348356468936157,TRUE,79,0.411812394857407,798.59619140625,24.3330612182617,0.940407276153564
"S120",0.351350554711914,2.94804954528809,"slow",0,1344,0.348398149435425,TRUE,80,0.421043127775192,520.706604003906,117.364761352539,-0.542880356311798
"S120",0.315439603860473,3.85026049613953,"fast",169,1513,0.348635247966003,TRUE,81,0.31030946969986,703.033752441406,-144.386810302734,-0.494246333837509
"S120",0.365476126916504,3.4699239730835,"slow",0,1513,0.348398149435425,TRUE,82,0.359637439250946,-354.729675292969,-161.166580200195,0.568132102489471
"S120",0.349097092955017,1.64910280704498,"slow",0,1513,0.348635247966003,TRUE,83,0.319635570049286,-702.249206542969,147.749954223633,-0.575291931629181
"S120",0.364671831185913,3.13302826881409,"slow",0,1513,0.348872346496582,TRUE,84,0.471012234687805,606.5263671875,78.3727493286133,-0.0457130074501038
"S120",-0.959253404562378,3.89145350456238,"early",-100,1413,0.348984719725799,FALSE,84,0,0,0,0
"S120",0.397830359840393,1.51456964015961,"slow",0,1413,0.348984719725799,TRUE,85,0.521123290061951,-419.833557128906,-89.6628723144531,0.331830620765686
"S120",0.386294274957275,3.17950582504272,"slow",0,1413,0.349097092955017,TRUE,86,0.642990529537201,576.527465820312,-100.236442565918,-0.180174484848976
"S120",0.415910794885254,1.04688930511475,"slow",0,1413,0.349728359671783,TRUE,87,0.394067972898483,597.611145019531,-125.004348754883,-0.478999614715576
"S120",0.374947595541382,2.55735230445862,"slow",0,1413,0.35035962638855,TRUE,88,0.374580055475235,-580.011352539062,-254.614074707031,0.520710408687592
"S120",0.334856088964844,1.01334381103516,"fast",166,1579,0.350855090550232,TRUE,89,0.32357931137085,-649.427124023438,-0.544342041015625,0.689873337745667
"S120",0.363539506912231,2.35096049308777,"slow",0,1579,0.35035962638855,TRUE,90,0.47343373298645,578.985534667969,-173.561813354492,-0.490598291158676
"S120",0.352572887802124,3.71082711219788,"slow",0,1579,0.350855090550232,TRUE,91,0.50035285949707,623.150390625,-329.411315917969,-0.589479565620422
"S120",0.392330431611633,1.30496966838837,"slow",0,1579,0.351350554711914,TRUE,92,0.534384191036224,583.497802734375,-96.7080230712891,0.265218108892441
"S120",0.340758575439453,2.12324142456055,"fast",165,1744,0.351750805500793,TRUE,93,0.458950877189636,440.060699462891,-128.968109130859,0.553683578968048
"S120",0.365639011056518,2.94866108894348,"slow",0,1744,0.351350554711914,TRUE,94,0.40847510099411,-497.223205566406,-104.61563873291,0.0282721519470215
"S120",0.317966264779663,2.73123383522034,"fast",169,1913,0.351750805500793,TRUE,95,0.590939998626709,-446.203796386719,-284.867065429688,-0.467619955539703
"S120",0.359592984199524,1.48840701580048,"slow",0,1913,0.351350554711914,TRUE,96,0.657698392868042,447.758361816406,-182.05842590332,0.205861076712608
"S120",0.342537281362915,3.20716261863708,"fast",165,2078,0.351750805500793,TRUE,97,0.578768134117126,-746.430969238281,-165.056060791016,0.799895107746124
"S120",0.372338900566101,1.5751610994339,"slow",0,2078,0.351350554711914,TRUE,98,0.37263485789299,533.100524902344,11.8629379272461,0.368450462818146
"S120",0.343554313986206,2.25464558601379,"fast",165,2243,0.351750805500793,TRUE,99,0.339513063430786,854.831420898438,-191.417053222656,-0.910828530788422
"S120",0.334335234124756,3.48076486587524,"fast",166,2409,0.351350554711914,TRUE,100,0.561655759811401,-433.767944335938,-348.726379394531,-0.883929669857025
"S120",0.419887388801575,1.11121261119843,"slow",0,2409,0.350855090550232,TRUE,101,0.39103889465332,-739.902465820312,-38.6729736328125,-0.335781931877136
"S120",0.392825202996826,1.30487489700317,"slow",0,2409,0.351350554711914,TRUE,102,0.525182247161865,798.296020507812,-125.261611938477,0.858244955539703
"S120",0.358123338372803,2.6896767616272,"slow",0,2409,0.351750805500793,TRUE,103,0.674783527851105,547.230224609375,-327.509429931641,-0.983634769916534
"S120",0.319347556741333,3.11195254325867,"fast",169,2578,0.352151056289673,TRUE,104,0.517962515354156,-530.94970703125,-359.034637451172,0.505731165409088
"S120",0.36409116897583,2.30250883102417,"slow",0,2578,0.351750805500793,TRUE,105,0.514857113361359,-564.686584472656,-373.0654296875,0.756083130836487
"S120",0.374976841299438,1.90622305870056,"slow",0,2578,0.352151056289673,TRUE,106,0.407718390226364,-503.01220703125,82.5636596679688,-0.71788215637207
"S120",0.268533970315551,3.74556612968445,"fast",178,2756,0.352361972045898,TRUE,107,0.386253088712692,-500.369689941406,-407.813385009766,-0.0369942151010036
"S120",0.375416257858276,2.19008374214172,"slow",0,2756,0.352151056289673,TRUE,108,0.667261779308319,-577.107666015625,-187.151824951172,0.732781648635864
"S120",0.432418042182922,1.04858195781708,"slow",0,2756,0.352361972045898,TRUE,109,0.601876437664032,463.048400878906,-72.2704238891602,0.416599661111832
"S120",0.373860746328735,2.08943915367126,"slow",0,2756,0.352572887802124,TRUE,110,0.485289931297302,-653.423583984375,-377.263031005859,-0.0676653683185577
"S120",0.312718427276611,2.80488157272339,"fast",170,2926,0.353816292163086,TRUE,111,0.575791954994202,-725.185913085938,-349.356292724609,-0.976747512817383
"S120",0.323620254516602,2.8958797454834,"fast",168,3094,0.352572887802124,TRUE,112,0.328235566616058,732.493041992188,-373.008697509766,-0.903485655784607
"S120",0.322594685308838,3.44450521469116,"fast",168,3262,0.352361972045898,TRUE,113,0.585307955741882,539.381469726562,-91.2693557739258,0.976747572422028
"S120",0.331430003356934,2.35076999664307,"fast",167,3429,0.352151056289673,TRUE,114,0.447397232055664,407.740966796875,29.7154159545898,0.335781991481781
"S120",0.720343381881714,3.16165661811829,"missed",0,3429,0.351750805500793,FALSE,114,0.535893142223358,665.297973632812,-109.393035888672,-0.992799460887909
"S120",-2.68451557273865,3.24831557273865,"early",-100,3329,0.352151056289673,FALSE,114,0,0,0,0
"S120",0.506731729452515,1.79306817054749,"slow",0,3329,0.352151056289673,TRUE,115,0.523233354091644,631.583374023438,27.0834121704102,0.269694924354553
"S120",0.400968353326416,3.73373174667358,"slow",0,3329,0.352361972045898,TRUE,116,0.508427381515503,-740.927368164062,-240.000335693359,-0.997975885868073
"S120",0.358822954122925,3.12397694587708,"slow",0,3329,0.352572887802124,TRUE,117,0.585594594478607,768.541442871094,-129.178848266602,-0.998287260532379
"S120",0.411948043768311,3.83985185623169,"slow",0,3329,0.353816292163086,TRUE,118,0.30838006734848,-334.346160888672,-58.6044464111328,0.929479837417603
"S120",0.558397255651855,3.42470264434814,"slow",0,3329,0.355059696524048,TRUE,119,0.677695333957672,-515.469299316406,-52.7206192016602,0.999720871448517
"S120",0.408024795913696,3.5078752040863,"slow",0,3329,0.356403433744812,TRUE,120,0.344064295291901,-730.594177246094,94.2802734375,0.750643193721771
"S120",0.478996319444275,1.73830378055573,"slow",0,3329,0.357747170965576,TRUE,121,0.492535889148712,626.549682617188,-26.4443435668945,-0.885830402374268
"S120",0.379245466613769,3.33515453338623,"slow",0,3329,0.357935254669189,TRUE,122,0.54544061422348,-413.989990234375,-2.59806823730469,-0.85847806930542
"S120",0.342385881369018,2.55791401863098,"fast",166,3495,0.358123338372803,TRUE,123,0.541219174861908,555.498229980469,-250.940216064453,0.769999861717224
"S120",0.404667438943481,3.85993266105652,"slow",0,3495,0.357935254669189,TRUE,124,0.474946975708008,-690.384033203125,-83.9933853149414,-0.0323504209518433
"S120",0.409239699935913,2.22336030006409,"slow",0,3495,0.358123338372803,TRUE,125,0.592364728450775,-778.384094238281,-64.1689376831055,-0.91950535774231
"S120",0.320259379060364,1.72604072093964,"fast",169,3664,0.358422596577453,TRUE,126,0.686244785785675,-647.39453125,-176.045532226562,-0.96430891752243
"S120",0.392023790304565,1.69077610969543,"slow",0,3664,0.358123338372803,TRUE,127,0.374612808227539,-839.987365722656,-187.335418701172,0.23096464574337
"S120",0.330828800256347,3.05187129974365,"fast",168,3832,0.358422596577453,TRUE,128,0.398196935653687,-415.177825927734,-53.1930923461914,0.988635659217834
"S120",0.697206161935425,2.10139393806458,"slow",0,3832,0.358123338372803,TRUE,129,0.618821799755096,567.542053222656,-300.831695556641,0.344415724277496
"S120",-0.658869775390625,3.30776977539062,"early",-100,3732,0.358422596577453,FALSE,129,0,0,0,0
"S120",0.392696613366699,3.6065034866333,"slow",0,3732,0.358422596577453,TRUE,130,0.484686970710754,-739.822448730469,-374.229522705078,-0.72110915184021
"S120",0.434499629266357,2.81390047073364,"slow",0,3732,0.358721854782104,TRUE,131,0.526606619358063,-742.181945800781,-220.903167724609,-0.244395822286606
"S120",0.528227170889282,1.38807272911072,"slow",0,3732,0.358772404452514,TRUE,132,0.370392233133316,-566.226989746094,-7.86495208740234,0.996713995933533
"S120",0.374457865905762,1.24174213409424,"slow",0,3732,0.358822954122925,TRUE,133,0.594715654850006,-452.899139404297,-77.008903503418,0.124400556087494
"S120",0.361926196725464,3.82187390327454,"slow",0,3732,0.358913462257385,TRUE,134,0.579621255397797,503.178527832031,-21.3993186950684,-0.0933065786957741
"S120",0.36534725856781,1.60165274143219,"slow",0,3732,0.359003970391846,TRUE,135,0.328711926937103,-666.717529296875,-396.394653320312,-0.75064343214035
"S120",0.381725097982788,3.83447480201721,"slow",0,3732,0.35902369752655,TRUE,136,0.657254278659821,712.519470214844,-34.1175155639648,0.951841652393341
"S120",0.566385622079468,1.54631447792053,"slow",0,3732,0.359043424661255,TRUE,137,0.566600501537323,-434.694458007812,-254.340087890625,0.657981932163239
"S120",0.423857521057129,2.22514247894287,"slow",0,3732,0.359074613598633,TRUE,138,0.359149038791656,491.326110839844,-102.984535217285,0.158953234553337
"S120",0.369914370346069,2.91338562965393,"slow",0,3732,0.359105802536011,TRUE,139,0.646915137767792,-523.185302734375,-324.082336425781,-0.281568765640259
"S120",0.396860205133057,2.30223989486694,"slow",0,3732,0.359285408210754,TRUE,140,0.430434495210648,-490.843048095703,-183.462295532227,-0.997382879257202
"S120",0.411662300109863,3.57133769989014,"slow",0,3732,0.359465013885498,TRUE,141,0.4259133040905,-513.500549316406,76.4585876464844,0.535146653652191
"S120",0.353139678955078,3.47636032104492,"fast",164,3896,0.359528999042511,TRUE,142,0.581924557685852,578.139465332031,-330.349182128906,0.634108006954193
"S120",0.375459873635864,2.62464022636414,"slow",0,3896,0.359465013885498,TRUE,143,0.446445882320404,797.27734375,-63.3743591308594,0.762060105800629
"S120",0.394800407354736,2.56949949264526,"slow",0,3896,0.359528999042511,TRUE,144,0.611586630344391,758.025634765625,-132.907775878906,-0.97177129983902
"S120",0.518582495498657,2.18021750450134,"slow",0,3896,0.359592984199524,TRUE,145,0.330656588077545,-676.151184082031,-136.765045166016,-0.988084197044373
"S120",0.346882506997681,2.03491759300232,"fast",165,4061,0.36015952637558,TRUE,146,0.303039073944092,698.052917480469,-87.4872894287109,-0.524671792984009
"S120",0.400905527114868,3.46309447288513,"slow",0,4061,0.359592984199524,TRUE,147,0.483729124069214,-670.571960449219,-202.753189086914,0.196867734193802
"S120",0.34700369644165,2.80099630355835,"fast",165,4226,0.36015952637558,TRUE,148,0.589463472366333,737.589294433594,-206.764495849609,0.885830163955688
"S120",0.375378711700439,3.00762128829956,"slow",0,4226,0.359592984199524,TRUE,149,0.395082086324692,-722.786010742188,-268.210113525391,0.958092153072357
"S120",0.367454122869873,1.54674577713013,"slow",0,4226,0.36015952637558,TRUE,150,0.590626895427704,-481.86279296875,-220.453216552734,-0.505338907241821
"S120",0.406413452148437,1.71058654785156,"slow",0,4226,0.360726068551636,TRUE,151,0.545789957046509,763.878601074219,-209.107803344727,-0.9956374168396
"S120",0.472426842308044,1.04367315769196,"slow",0,4226,0.36132613263855,TRUE,152,0.435677260160446,641.6875,-294.746307373047,0.372240364551544
"S120",0.288356681442261,2.27474331855774,"fast",175,4401,0.361926196725464,TRUE,153,0.455229043960571,-772.392578125,-368.546478271484,0.638044416904449
"S120",0.345599128396606,3.75370097160339,"fast",165,4566,0.36132613263855,TRUE,154,0.540157556533813,-620.776794433594,-38.1756019592285,-0.0759158805012703
"S120",0.41224878540039,3.50265121459961,"slow",0,4566,0.360726068551636,TRUE,155,0.410823851823807,-709.179077148438,-332.944091796875,-0.981137275695801
"S120",0.451576459503174,1.17852354049683,"slow",0,4566,0.36132613263855,TRUE,156,0.492630958557129,-687.072326660156,-230.529632568359,-0.235924988985062
"S120",0.351611816732788,1.91308808326721,"fast",164,4730,0.361926196725464,TRUE,157,0.46208667755127,618.488159179688,55.3608474731445,0.673707365989685
"S119",0.434899892044067,2.26430010795593,"slow",0,0,0.375,TRUE,1,0.321731865406036,-606.625732421875,-250.092956542969,0.0174524579197168
"S119",0.366923467881775,1.46547663211823,"fast",169,169,0.434899892044067,TRUE,2,0.602330982685089,394.636444091797,-39.5231704711914,-0.894934356212616
"S119",0.28402198835144,2.48157811164856,"fast",179,348,0.400911679962921,TRUE,3,0.460803270339966,-443.137725830078,-39.0159912109375,0.636078238487244
"S119",0.329207633590698,3.5868923664093,"fast",169,517,0.366923467881775,TRUE,4,0.356802642345428,529.518432617188,-355.747528076172,-0.366501152515411
"S119",0.304876716613769,3.62812328338623,"fast",171,688,0.348065550736236,TRUE,5,0.47865879535675,658.919555664062,-389.372344970703,-0.507538557052612
"S119",0.399824006517029,1.18277609348297,"slow",0,688,0.329207633590698,TRUE,6,0.347290813922882,-446.847534179688,196.363372802734,0.707106709480286
"S119",0.314728225898742,1.38447177410126,"fast",169,857,0.348065550736236,TRUE,7,0.487806379795074,530.052612304688,-272.607391357422,0.422618389129639
"S119",0.396152046203613,1.46934795379639,"slow",0,857,0.329207633590698,TRUE,8,0.599835216999054,-435.767120361328,-30.9903259277344,0.0174525380134583
"S119",0.456354956054687,1.54304504394531,"slow",0,857,0.348065550736236,TRUE,9,0.659400761127472,675.813415527344,-136.729049682617,-0.406736791133881
"S119",0.326126645143127,1.63957345485687,"fast",169,1026,0.366923467881775,TRUE,10,0.537625551223755,-580.753051757812,-67.6703033447266,-0.199368074536324
"S119",0.315710379273987,1.53358972072601,"fast",169,1195,0.348065550736236,TRUE,11,0.361251592636108,-395.896911621094,-331.069458007812,-1.34110436533774e-07
"S119",0.302514672525024,2.91288542747498,"fast",170,1365,0.329207633590698,TRUE,12,0.566364169120789,373.611938476562,-345.854034423828,0.551936864852905
"S119",0.348784160614013,2.35121583938599,"slow",0,1365,0.327667139366913,TRUE,13,0.568841934204102,449.131866455078,-205.658569335938,0.642787516117096
"S119",0.304013186209106,1.46158671379089,"fast",169,1534,0.329207633590698,TRUE,14,0.382985591888428,-528.352111816406,37.6913375854492,-0.173647969961166
"S119",0.357146645355225,3.05865335464478,"slow",0,1534,0.327667139366913,TRUE,15,0.571817815303802,583.666870117188,-60.1049003601074,-0.325568318367004
"S119",-2.22990035062561,2.24720025062561,"early",-100,1434,0.329207633590698,FALSE,15,0,0,0,0
"S119",0.414329231207275,2.36847066879272,"slow",0,1434,0.329207633590698,TRUE,16,0.650511980056763,-680.95751953125,-268.131195068359,0.492423713207245
"S119",0.429147074453735,3.45345282554626,"slow",0,1434,0.338995897102356,TRUE,17,0.393499225378036,-622.087707519531,-254.429214477539,-0.995396196842194
"S119",0.321139274215698,3.5944607257843,"fast",168,1602,0.348784160614013,TRUE,18,0.651593267917633,663.748046875,-104.281311035156,-0.891006588935852
"S119",0.365412657546997,1.567387342453,"slow",0,1602,0.338995897102356,TRUE,19,0.520838558673859,679.400024414062,-405.1689453125,-0.656059145927429
"S119",0.371594862747192,2.86070513725281,"slow",0,1602,0.348784160614013,TRUE,20,0.698496878147125,-514.049987792969,-215.550598144531,0.814115643501282
"S119",0.397407717323303,1.3521922826767,"slow",0,1602,0.352965402984619,TRUE,21,0.626734673976898,-670.860473632812,-23.710277557373,-0.241921752691269
"S119",0.328902090835571,3.73739790916443,"fast",168,1770,0.357146645355225,TRUE,22,0.575053751468658,-543.896911621094,-347.437927246094,-0.948323607444763
"S119",0.255612007141113,1.91038799285889,"fast",181,1951,0.352965402984619,TRUE,23,0.327334105968475,266.872100830078,-180.113220214844,-0.993571877479553
"S119",0.342465613937378,2.82363438606262,"fast",164,2115,0.348784160614013,TRUE,24,0.696876585483551,556.080688476562,-104.587821960449,-0.37460669875145
"S119",0.299267607443237,3.86633229255676,"fast",172,2287,0.345624887275696,TRUE,25,0.590652704238892,-646.690551757812,-341.562774658203,-0.0174525398761034
"S119",0.313229499053955,3.21947050094604,"fast",169,2456,0.342465613937378,TRUE,26,0.378724485635757,562.113098144531,-403.181549072266,0.95881974697113
"S119",-2.70590066490173,2.85530066490173,"early",-100,2356,0.335836623764038,FALSE,26,0,0,0,0
"S119",0.394967967224121,1.87123203277588,"slow",0,2356,0.335836623764038,TRUE,27,0.662725865840912,570.331909179688,-3.21901893615723,0.669130802154541
"S119",0.391483881950378,1.42401611804962,"slow",0,2356,0.342465613937378,TRUE,28,0.490549504756927,347.977691650391,-277.575256347656,-0.86602520942688
"S119",0.329441734695434,2.98695826530457,"fast",166,2522,0.345624887275696,TRUE,29,0.588399231433868,-638.798156738281,67.9319305419922,-0.998134791851044
"S119",0.30501337890625,3.94378662109375,"fast",171,171,0.342465613937378,TRUE,30,0.51474529504776,-508.718566894531,-211.412933349609,-0.999390840530396
"S119",0.38662782064209,3.51467227935791,"slow",0,171,0.335953674316406,TRUE,31,0.388489693403244,719.95703125,55.7780456542969,-0.848048269748688
"S119",0.325354430007934,3.77394556999207,"fast",167,338,0.342465613937378,TRUE,32,0.687695443630219,-683.13818359375,-323.878784179688,0.782608032226562
"S119",0.309440385818481,1.49005961418152,"fast",169,507,0.335953674316406,TRUE,33,0.325690925121307,764.800537109375,-402.897186279297,-0.267238199710846
"S119",0.33304334526062,3.46575665473938,"slow",0,507,0.329441734695434,TRUE,34,0.475466907024384,-745.256896972656,-24.8022689819336,-0.453990340232849
"S119",0.389136868667602,1.0270631313324,"slow",0,507,0.331242539978027,TRUE,35,0.555591642856598,426.024475097656,-299.908935546875,-0.782608389854431
"S119",0.378731235449219,1.18756866455078,"slow",0,507,0.33304334526062,TRUE,36,0.472695767879486,526.708862304688,124.574821472168,0.0348992347717285
"S119",0.374325265557861,2.97547483444214,"slow",0,507,0.337754479598999,TRUE,37,0.547619223594666,696.010925292969,-226.773147583008,0.945518672466278
"S119",0.3807315284729,1.4349684715271,"slow",0,507,0.342465613937378,TRUE,38,0.466204464435577,460.102783203125,-228.580062866211,0.874619781970978
"S119",0.343429515130615,2.35647058486938,"fast",164,671,0.345624887275696,TRUE,39,0.570729315280914,621.227783203125,-360.365661621094,-0.843391299247742
"S119",0.274198185021973,3.34200191497803,"fast",176,847,0.343429515130615,TRUE,40,0.502147555351257,-635.623474121094,-32.4322052001953,-0.961261808872223
"S119",0.393854306793213,2.22224569320679,"slow",0,847,0.342947564533996,TRUE,41,0.565814971923828,732.324035644531,18.7127456665039,0.90258514881134
"S119",0.367642358724975,3.73115754127502,"slow",0,847,0.343429515130615,TRUE,42,0.30542266368866,-671.338928222656,118.650634765625,0.0697569251060486
"S119",0.023438946723938,1.59356105327606,"fast",200,1047,0.346106837872314,TRUE,43,0.337181687355042,-450.940155029297,-234.632827758789,-0.838670372962952
"S119",0.382340208053589,2.18365979194641,"slow",0,1047,0.343429515130615,TRUE,44,0.482972979545593,-350.644409179688,-51.3839492797852,-0.788011014461517
"S119",0.307278553390503,2.0416214466095,"fast",170,1217,0.346106837872314,TRUE,45,0.475239872932434,626.685241699219,-186.810241699219,0.976295948028564
"S119",0.348488806343078,1.21761119365692,"slow",0,1217,0.343429515130615,TRUE,46,0.687755048274994,-572.214233398438,-309.014190673828,-0.422617942094803
"S119",0.369523100280762,2.82987689971924,"slow",0,1217,0.345959160736847,TRUE,47,0.569382190704346,676.920471191406,-157.956344604492,-0.51503849029541
"S119",0.287845648574829,3.72845435142517,"fast",174,1391,0.348488806343078,TRUE,48,0.628142535686493,688.863220214844,26.4531631469727,-0.0697569251060486
"S119",0.315015598678589,3.60138440132141,"fast",169,1560,0.345959160736847,TRUE,49,0.64461088180542,-622.114135742188,11.8352947235107,0.601815462112427
"S119",0.55712860894928,1.05877149105072,"slow",0,1560,0.343429515130615,TRUE,50,0.59104722738266,-399.945556640625,-97.2573013305664,-0.939692854881287
"S119",0.33769088935852,3.51180911064148,"fast",165,1725,0.345959160736847,TRUE,51,0.406373590230942,776.714294433594,34.03857421875,-0.333807408809662
"S119",0.34716029548645,2.36933970451355,"slow",0,1725,0.343429515130615,TRUE,52,0.518285870552063,324.766265869141,52.3710632324219,0.258818507194519
"S119",0.377764479064941,2.32113552093506,"slow",0,1725,0.345294905308533,TRUE,53,0.363093256950378,-471.631164550781,-289.166351318359,0.999048233032227
"S119",0.315435982131958,3.41746401786804,"fast",169,1894,0.34716029548645,TRUE,54,0.647926986217499,533.301940917969,-334.409301757812,0.430511683225632
"S119",0.329042173712158,1.58715772628784,"fast",166,2060,0.345294905308533,TRUE,55,0.582136273384094,478.939117431641,-277.666381835938,-0.43837183713913
"S119",0.308521839904785,2.04077816009521,"fast",170,2230,0.343429515130615,TRUE,56,0.591666281223297,-373.6298828125,-113.756317138672,0.477159559726715
"S119",0.415472997338867,2.28332710266113,"slow",0,2230,0.342947564533996,TRUE,57,0.327127635478973,506.816833496094,178.797470092773,-0.972370147705078
"S119",0.314447733306884,3.40195226669312,"fast",169,2399,0.343429515130615,TRUE,58,0.556313157081604,565.42626953125,-262.965576171875,0.999048292636871
"S119",0.362355599594116,1.37034440040588,"slow",0,2399,0.342947564533996,TRUE,59,0.359269380569458,-494.405395507812,-181.155059814453,-0.809016585350037
"S119",0.31975565032959,3.29604434967041,"fast",168,2567,0.343429515130615,TRUE,60,0.478900194168091,-606.201782226562,-293.593780517578,0.0784583762288094
"S119",0.306831950759888,3.24276804924011,"fast",170,2737,0.342947564533996,TRUE,61,0.48549485206604,639.204406738281,-168.092147827148,0.870355367660522
"S119",0.293384993362427,2.72191500663757,"fast",173,2910,0.342465613937378,TRUE,62,0.496408462524414,-557.078796386719,-15.5851745605469,0.999390840530396
"S119",0.327972681100464,3.17172741889954,"fast",166,3076,0.340078251647949,TRUE,63,0.436880081892014,-632.838745117188,-32.6887817382812,-0.833885371685028
"S119",0.337384492111206,3.77881550788879,"fast",164,164,0.33769088935852,TRUE,64,0.535824060440063,-583.650329589844,-22.8443374633789,-0.999390840530396
"S119",0.356440481130981,2.65985941886902,"slow",0,164,0.337537690734863,TRUE,65,0.67922168970108,541.180297851562,-340.916900634766,0.760405540466309
"S119",0.331032918167114,3.90216708183289,"fast",165,329,0.33769088935852,TRUE,66,0.635912358760834,-483.13330078125,4.28194808959961,-0.461747884750366
"S119",0.376245751953125,3.05685424804688,"slow",0,329,0.337537690734863,TRUE,67,0.595419108867645,602.274658203125,-329.363647460938,-0.594822108745575
"S119",0.404971016693115,1.96132898330688,"slow",0,329,0.33769088935852,TRUE,68,0.457053124904633,664.469543457031,-312.042022705078,-0.809017479419708
"S119",0.521093959808349,1.16140604019165,"slow",0,329,0.340078251647949,TRUE,69,0.674041926860809,-554.822143554688,-41.3124389648438,0.906308174133301
"S119",0.355985900688171,1.04331409931183,"slow",0,329,0.342465613937378,TRUE,70,0.626014530658722,611.7548828125,-148.568572998047,-0.993571996688843
"S119",0.237106070709229,2.09559392929077,"fast",183,512,0.342947564533996,TRUE,71,0.542459905147552,-481.545959472656,22.8699493408203,-0.342020869255066
"S119",0.333704956054687,3.69929504394531,"fast",165,677,0.342465613937378,TRUE,72,0.573665976524353,466.017761230469,-319.199066162109,0.891006827354431
"S119",0.335215565490723,3.66408443450928,"fast",165,842,0.340078251647949,TRUE,73,0.472654283046722,624.873413085938,30.7119369506836,0.414693832397461
"S119",0.378911335046387,1.17078876495361,"slow",0,842,0.33769088935852,TRUE,74,0.590663611888885,-737.255554199219,-357.442291259766,-1
"S119",0.415049256134033,3.50125074386597,"slow",0,842,0.340078251647949,TRUE,75,0.489924490451813,-692.90576171875,-8.62109375,0.948323488235474
"S119",0.259734756906128,2.97286534309387,"fast",179,1021,0.342465613937378,TRUE,76,0.548793494701385,429.133758544922,-372.326690673828,0.366501837968826
"S119",0.30711840133667,3.89268159866333,"fast",170,1191,0.340078251647949,TRUE,77,0.68571001291275,-481.189910888672,-274.218383789062,0.139173746109009
"S119",0.371166236877441,2.16183376312256,"slow",0,1191,0.33769088935852,TRUE,78,0.673592388629913,-664.959655761719,-87.5311050415039,-0.522499084472656
"S119",0.226301279504394,3.98929882049561,"fast",185,1376,0.340078251647949,TRUE,79,0.551257133483887,-675.349609375,-4.78076934814453,0.608761966228485
"S119",0.334118271636963,3.08168172836304,"fast",164,1540,0.33769088935852,TRUE,80,0.334286391735077,-622.060974121094,-31.8245239257812,-0.803856372833252
"S119",0.330344134521484,3.68585586547852,"fast",165,1705,0.337537690734863,TRUE,81,0.616229474544525,-718.244262695312,-157.804534912109,-0.165048435330391
"S119",0.365049784469604,3.5677502155304,"slow",0,1705,0.337384492111206,TRUE,82,0.659908831119537,664.436767578125,-324.400054931641,0.573577165603638
"S119",0.35204124780426,1.61405885219574,"slow",0,1705,0.337537690734863,TRUE,83,0.5752112865448,722.312377929688,-54.6210136413574,-0.993571758270264
"S119",0.32715918674469,1.68924081325531,"fast",166,1871,0.33769088935852,TRUE,84,0.38006591796875,-501.250610351562,178.064956665039,-0.681999087333679
"S119",0.392384217834472,3.97371578216553,"slow",0,1871,0.337537690734863,TRUE,85,0.451622426509857,630.839721679688,-261.835113525391,-0.0958466827869415
"S119",0.377434217453003,1.872065782547,"slow",0,1871,0.33769088935852,TRUE,86,0.358954071998596,471.148010253906,-303.246459960938,0.694657683372498
"S119",0.33278152809143,3.58331847190857,"fast",165,2036,0.340078251647949,TRUE,87,0.545065701007843,695.381469726562,-265.024444580078,0.52249938249588
"S119",0.325845960998535,3.82355403900146,"fast",166,2202,0.33769088935852,TRUE,88,0.496310114860535,609.322021484375,9.61020660400391,-0.7826087474823
"S119",0.324218507330322,2.40868139266968,"fast",166,2368,0.337537690734863,TRUE,89,0.308615148067474,-788.895324707031,-16.0445556640625,0.0610475279390812
"S119",0.333661824417114,1.28253817558289,"fast",165,2533,0.337384492111206,TRUE,90,0.502038538455963,587.495849609375,-131.61018371582,0.130527228116989
"S119",0.381952473068237,3.93444752693176,"slow",0,2533,0.336300028800964,TRUE,91,0.498163461685181,544.989440917969,-189.953308105469,-0.537298738956451
"S119",0.398805083084106,2.51749491691589,"slow",0,2533,0.337384492111206,TRUE,92,0.5509974360466,-462.025451660156,-366.615142822266,-0.573577344417572
"S119",0.678062013626098,3.8884379863739,"missed",0,2533,0.337537690734863,FALSE,92,0.315657079219818,-739.707946777344,213.46745300293,0.968147993087769
"S119",0.367035004425049,2.23226499557495,"slow",0,2533,0.33769088935852,TRUE,93,0.526014447212219,-725.049621582031,-0.667831420898438,0.567009270191193
"S119",0.375704900686646,3.12359499931335,"slow",0,2533,0.340078251647949,TRUE,94,0.534850358963013,692.064453125,72.0025787353516,0.948555648326874
"S119",0.474021356391907,1.05877864360809,"slow",0,2533,0.342465613937378,TRUE,95,0.383047103881836,566.606567382812,18.744743347168,0.765573859214783
"S119",0.406418125915527,3.62638187408447,"slow",0,2533,0.342947564533996,TRUE,96,0.438874185085297,482.90576171875,-219.377975463867,-0.508168816566467
"S119",0.69646947555542,1.92033052444458,"missed",0,2533,0.343429515130615,FALSE,96,0.456362962722778,-771.775756835938,-199.169769287109,-0.920218706130981
"S119",0.400281957626343,1.41621804237366,"slow",0,2533,0.345294905308533,TRUE,97,0.583097398281097,524.955017089844,-322.09814453125,-0.913842916488647
"S119",0.38069243850708,3.71870756149292,"slow",0,2533,0.34716029548645,TRUE,98,0.51400500535965,-651.7958984375,-405.7578125,-0.905998289585114
"S119",0.288562889099121,2.64393711090088,"fast",174,2707,0.347824550914764,TRUE,99,0.363670527935028,598.591430664062,170.904205322266,-0.57297682762146
"S119",0.381795093345642,1.66750490665436,"slow",0,2707,0.34716029548645,TRUE,100,0.340426564216614,627.840270996094,-148.042358398438,0.383359491825104
"S119",0.300293999862671,2.11590600013733,"fast",172,2879,0.347824550914764,TRUE,101,0.554954886436462,-539.331115722656,-249.467193603516,0.84378445148468
"S119",0.303258324432373,1.36254167556763,"fast",171,3050,0.34716029548645,TRUE,102,0.317327916622162,-577.736572265625,-198.940704345703,0.712737321853638
"S119",0.341819683456421,2.25708031654358,"fast",164,3214,0.345294905308533,TRUE,103,0.639259338378906,-644.868713378906,-113.503486633301,0.700387120246887
"S119",0.327808457946777,2.47129154205322,"fast",166,3380,0.343429515130615,TRUE,104,0.558485984802246,-634.630981445312,-339.887634277344,0.37392795085907
"S119",0.29076210975647,3.94173789024353,"fast",173,3553,0.342947564533996,TRUE,105,0.431820333003998,-695.281860351562,-173.563842773438,-0.920790612697601
"S119",0.697715796279907,3.31858420372009,"missed",0,3553,0.342465613937378,FALSE,105,0.697900712490082,-662.188842773438,-273.005249023438,-0.967964172363281
"S119",0.405401946694946,2.74389815330505,"slow",0,3553,0.342947564533996,TRUE,106,0.30025452375412,-492.140563964844,173.586151123047,0.902224838733673
"S119",0.370748545019531,3.34545135498047,"slow",0,3553,0.343429515130615,TRUE,107,0.553809523582458,456.13232421875,-49.2855834960938,-0.910307884216309
"S119",0.321320615005493,1.86137938499451,"fast",168,3721,0.345294905308533,TRUE,108,0.676574647426605,-540.816040039062,-338.85107421875,-0.207093343138695
"S119",0.615875219345092,3.43312478065491,"slow",0,3721,0.343429515130615,TRUE,109,0.305161118507385,584.327026367188,230.172775268555,0.977973341941833
"S119",0.463006533432007,1.30329346656799,"slow",0,3721,0.345294905308533,TRUE,110,0.424996972084045,-445.065490722656,-402.584320068359,-0.990151345729828
"S119",0.361986031286621,3.78761386871338,"slow",0,3721,0.34716029548645,TRUE,111,0.669467270374298,-666.773803710938,-227.22966003418,-0.979757606983185
"S119",0.397627354431152,2.86817264556885,"slow",0,3721,0.347824550914764,TRUE,112,0.33078533411026,-777.600646972656,-278.615112304688,-0.476423472166061
"S119",0.392430868721008,1.74066913127899,"slow",0,3721,0.348488806343078,TRUE,113,0.514762997627258,-580.645629882812,-356.864288330078,0.000836491584777832
"S119",0.381430134963989,2.45126986503601,"slow",0,3721,0.348636483478546,TRUE,114,0.531005620956421,604.275146484375,-36.1467666625977,0.890626549720764
"S119",0.340889303970337,2.49191069602966,"fast",165,3886,0.348784160614013,TRUE,115,0.596946656703949,475.766784667969,-266.134765625,0.730783045291901
"S119",0.310022666931152,3.35547733306885,"fast",170,4056,0.348636483478546,TRUE,116,0.5892453789711,-567.438720703125,-86.1390686035156,0.0863224864006042
"S119",0.31909303150177,1.53050696849823,"fast",169,4225,0.348488806343078,TRUE,117,0.418032675981522,-436.567993164062,-323.200866699219,-0.984952628612518
"S119",0.301912293624878,2.03078770637512,"fast",172,4397,0.347824550914764,TRUE,118,0.568915069103241,426.732116699219,-21.2479782104492,-0.990151345729828
"S134",0.377802226638794,3.17479777336121,"slow",0,0,0.375,TRUE,1,0.634408891201019,-400.130676269531,-55.6322708129883,0.999048233032227
"S134",0.357748726327515,3.14585137367249,"fast",165,165,0.377802226638794,TRUE,2,0.416870474815369,366.490844726562,-407.327545166016,-0.719339787960052
"S134",0.343603122656249,3.98919677734375,"fast",166,331,0.367775476483154,TRUE,3,0.500616371631622,719.960327148438,-18.2783279418945,-0.4924236536026
"S134",0.633314183044434,1.09698581695557,"slow",0,331,0.357748726327515,TRUE,4,0.667119920253754,695.792602539062,-179.275512695312,0.939692616462708
"S134",0.353815453092956,1.25108444690704,"fast",165,496,0.367775476483154,TRUE,5,0.55323052406311,-482.679046630859,-132.844909667969,-0.974370121955872
"S134",0.362293320083618,2.60060667991638,"slow",0,496,0.357748726327515,TRUE,6,0.644646942615509,670.922119140625,-229.076873779297,0.350207298994064
"S134",0.724258757019043,2.57114124298096,"missed",0,496,0.360021023205566,FALSE,6,0.378019243478775,-625.44873046875,38.4807434082031,1.49011611938477e-07
"S134",0.596703081703186,1.16389691829681,"slow",0,496,0.362293320083618,TRUE,7,0.61884218454361,-757.640319824219,-204.477310180664,0.800438523292542
"S134",0.401439350509643,3.04946064949036,"slow",0,496,0.370047773361206,TRUE,8,0.40854474902153,-393.349792480469,-380.463287353516,0.474518477916718
"S134",0.41335372467041,1.35434627532959,"slow",0,496,0.377802226638794,TRUE,9,0.679059445858002,565.477661132812,-219.649139404297,-0.789855360984802
"S134",0.327156875991821,2.99124312400818,"fast",171,667,0.389620788574219,TRUE,10,0.679479777812958,-659.8173828125,-142.300979614258,-0.297841429710388
"S134",0.309326238632202,2.7606737613678,"fast",173,840,0.377802226638794,TRUE,11,0.489395499229431,703.317626953125,-81.1395874023438,0.995104074478149
"S134",0.322559133093262,2.68034076690674,"fast",170,1010,0.370047773361206,TRUE,12,0.447418093681335,-598.507629394531,-137.073303222656,-0.962084889411926
"S134",0.360490773773193,2.05560922622681,"fast",163,1173,0.362293320083618,TRUE,13,0.55983966588974,740.290405273438,-46.3371849060059,0.517609119415283
"S134",0.307737175042725,2.55096292495728,"fast",172,1345,0.361392046928406,TRUE,14,0.67128723859787,735.821411132812,-120.323234558105,0.827355027198792
"S134",0.337353228378296,3.8264467716217,"fast",167,1512,0.360490773773193,TRUE,15,0.357322037220001,-384.325622558594,-398.551177978516,-0.502597689628601
"S134",0.333817824554443,3.76038217544556,"fast",167,1679,0.359119750050354,TRUE,16,0.337400734424591,-743.196411132812,-406.568084716797,0.295241296291351
"S134",0.726093598175049,2.23470640182495,"missed",0,1679,0.357748726327515,FALSE,16,0.489396810531616,526.58837890625,90.1289749145508,0.281135588884354
"S134",0.297818671035766,3.10298132896423,"fast",173,1852,0.359119750050354,TRUE,17,0.679101526737213,-540.116027832031,-125.516845703125,0.889735341072083
"S134",0.361042829568481,2.46515727043152,"slow",0,1852,0.357748726327515,TRUE,18,0.325259387493134,-705.080078125,-334.14111328125,0.617859661579132
"S134",0.36470811882019,2.32319188117981,"slow",0,1852,0.359119750050354,TRUE,19,0.678989112377167,722.490844726562,-322.107788085938,-0.868977189064026
"S134",0.418336537115478,2.35676336288452,"slow",0,1852,0.360490773773193,TRUE,20,0.369372576475143,-328.131225585938,-257.244445800781,-0.903784036636353
"S134",0.365129560525513,2.42157053947449,"slow",0,1852,0.360766801670837,TRUE,21,0.424457341432571,-491.285339355469,-412.685791015625,0.962880492210388
"S134",0.275276238250732,2.72152376174927,"fast",178,2030,0.361042829568481,TRUE,22,0.61645644903183,757.837158203125,-230.697113037109,0.989875555038452
"S134",0.320692974798584,2.45840692520142,"fast",170,2200,0.360766801670837,TRUE,23,0.427938163280487,-590.834777832031,-343.951843261719,0.509942412376404
"S134",0.357216510772705,2.55278348922729,"fast",163,2363,0.360490773773193,TRUE,24,0.686111986637115,519.795654296875,-288.196105957031,-0.999580323696136
"S134",0.359929205703735,1.83187079429626,"slow",0,2363,0.359119750050354,TRUE,25,0.336332440376282,-699.158203125,-395.534729003906,-0.471935331821442
"S134",0.412244136428833,2.16285586357117,"slow",0,2363,0.359929205703735,TRUE,26,0.413035601377487,641.699462890625,-395.948059082031,0.222229316830635
"S134",0.320164343643188,3.51663565635681,"fast",170,2533,0.360209989738464,TRUE,27,0.573674857616425,669.5947265625,-173.372833251953,-0.162292778491974
"S134",0.544785747146606,1.33231425285339,"slow",0,0,0.359929205703735,TRUE,28,0.331059694290161,-465.411682128906,-274.636657714844,-0.0899371802806854
"S134",0.371189905166626,2.44231009483337,"slow",0,0,0.360209989738464,TRUE,29,0.453076839447021,-327.341979980469,43.8249626159668,0.817547261714935
"S134",-1.61675862693787,1.93525862693787,"early",-100,0,0.360490773773193,FALSE,29,0,0,0,0
"S134",0.314174632318115,2.26772546768188,"fast",171,171,0.360490773773193,TRUE,30,0.671390354633331,-693.287963867188,-331.574188232422,-0.542294979095459
"S134",0.356197322845459,2.12030267715454,"fast",163,334,0.360209989738464,TRUE,31,0.510850191116333,703.675354003906,-342.439971923828,-0.721276760101318
"S134",0.284111627578735,3.04988837242126,"fast",176,510,0.359929205703735,TRUE,32,0.304754197597504,513.004455566406,-306.091278076172,-0.150570556521416
"S134",-1.23463006362915,3.90103006362915,"early",-100,410,0.358838966015625,FALSE,32,0,0,0,0
"S134",0.371191717147827,2.09230828285217,"slow",0,410,0.358838966015625,TRUE,33,0.542165815830231,537.003479003906,55.0179214477539,0.617859601974487
"S134",0.298658806610107,2.84814119338989,"fast",173,583,0.359929205703735,TRUE,34,0.624809563159943,728.222290039062,-301.334259033203,-0.627147793769836
"S134",0.734400053024292,2.22309994697571,"missed",0,583,0.358838966015625,FALSE,34,0.674287021160126,754.397033691406,-31.4485816955566,-0.705129504203796
"S134",0.3036031497406,3.2375967502594,"fast",173,756,0.359929205703735,TRUE,35,0.647114336490631,645.251647949219,-84.0347518920898,0.67060798406601
"S134",0.38008854795227,1.20181155204773,"slow",0,756,0.358838966015625,TRUE,36,0.594692170619965,596.0615234375,-253.469482421875,-0.997700929641724
"S134",0.314012242507935,3.47218775749207,"fast",171,927,0.359929205703735,TRUE,37,0.582723796367645,648.788391113281,-239.83821105957,-0.384521067142487
"S134",0.334940741729736,3.92325925827026,"fast",167,1094,0.358838966015625,TRUE,38,0.438246697187424,367.502868652344,-167.233093261719,0.513331472873688
"S134",0.407741103172302,1.0647588968277,"slow",0,1094,0.357748726327515,TRUE,39,0.642398178577423,355.609161376953,-327.591247558594,0.175607353448868
"S134",0.719837794821167,3.84056210517883,"missed",0,1094,0.358838966015625,FALSE,39,0.522880673408508,750.593200683594,-203.867340087891,-0.307124078273773
"S134",0.337847495651245,2.98025250434875,"fast",167,1261,0.359929205703735,TRUE,40,0.553470492362976,-789.989501953125,-304.075103759766,0.510812997817993
"S134",0.324386388397217,2.67471361160278,"fast",169,1430,0.358838966015625,TRUE,41,0.403866618871689,519.96337890625,22.118049621582,-0.0223732907325029
"S134",0.368187898826599,1.5485121011734,"slow",0,1430,0.357748726327515,TRUE,42,0.508063316345215,-674.36474609375,-276.971862792969,-0.715912103652954
"S134",0.293590831375122,3.24850916862488,"fast",174,1604,0.358838966015625,TRUE,43,0.696536958217621,-470.919647216797,-106.778129577637,0.653182804584503
"S134",0.371405402238464,1.58729469776154,"slow",0,1604,0.357748726327515,TRUE,44,0.359024405479431,694.323974609375,-66.6087799072266,0.994912445545197
"S134",0.389486079406738,1.65071392059326,"slow",0,1604,0.358838966015625,TRUE,45,0.337995231151581,553.175537109375,169.029647827148,-0.999774098396301
"S134",0.325058493859863,1.67534160614014,"fast",169,1773,0.359929205703735,TRUE,46,0.506351232528687,675.459106445312,-385.256652832031,0.81190025806427
"S134",0.310565544454956,1.95563435554504,"fast",171,1944,0.358838966015625,TRUE,47,0.446348786354065,-403.227172851562,-170.946640014648,0.98255443572998
"S134",0.311183264541626,1.10661673545837,"fast",171,2115,0.357748726327515,TRUE,48,0.572764337062836,726.118774414062,-302.480010986328,0.954854190349579
"S134",0.287558356912231,2.83924174308777,"fast",175,2290,0.35748261855011,TRUE,49,0.55422043800354,-765.532836914062,-217.587921142578,0.934937179088593
"S134",0.270764933013916,2.72213506698608,"fast",178,2468,0.357216510772705,TRUE,50,0.529913127422333,-705.656127929688,-285.155395507812,-0.556034564971924
"S134",0.273647366278076,1.80945253372192,"fast",178,2646,0.356706916809082,TRUE,51,0.378639280796051,-375.245239257812,-41.2023315429688,-0.168798893690109
"S134",0.314193469238281,2.56450653076172,"fast",170,2816,0.356197322845459,TRUE,52,0.312966406345367,303.553894042969,68.5037841796875,0.740593731403351
"S134",-0.722449774551392,3.63764977455139,"early",-100,2716,0.355006387969208,FALSE,52,0,0,0,0
"S134",0.339313149452209,1.53568685054779,"fast",166,2882,0.355006387969208,TRUE,53,0.5679811835289,-492.368041992188,-252.709686279297,0.108311504125595
"S134",0.348590213012695,1.5676097869873,"fast",164,3046,0.353815453092956,TRUE,54,0.585010886192322,767.818969726562,-288.040954589844,-0.0659606158733368
"S134",0.37342234916687,2.89977765083313,"slow",0,0,0.351202833052826,TRUE,55,0.525009155273438,-400.847961425781,-220.73388671875,-0.710578620433807
"S134",0.28357716178894,2.97242283821106,"fast",176,176,0.353815453092956,TRUE,56,0.48694920539856,-734.61376953125,-239.091918945312,-0.993134021759033
"S134",0.291926248223877,2.20087385177612,"fast",174,350,0.351202833052826,TRUE,57,0.453365564346313,-438.982543945312,58.459342956543,-0.81124746799469
"S134",0.362733386230468,2.97046661376953,"slow",0,350,0.348590213012695,TRUE,58,0.477094829082489,513.890625,-74.427864074707,0.305396348237991
"S134",0.348817375564575,3.83708262443542,"fast",164,514,0.351202833052826,TRUE,59,0.396119505167007,-667.904357910156,-182.666107177734,0.320910483598709
"S134",0.457405415344238,2.02339458465576,"slow",0,514,0.348817375564575,TRUE,60,0.557380497455597,692.347961425781,-80.5077514648438,-0.779534757137299
"S134",0.361626741218567,1.20017325878143,"slow",0,514,0.351316414328766,TRUE,61,0.336166799068451,-854.46923828125,-64.3951797485352,0.947109520435333
"S134",0.327030138070679,1.94466996192932,"fast",168,682,0.353815453092956,TRUE,62,0.301922738552094,-758.649597167969,-10.7823333740234,0.625487744808197
"S134",0.353876773834228,1.81312322616577,"slow",0,682,0.351316414328766,TRUE,63,0.480947494506836,-479.274566650391,-77.8099822998047,-0.952565968036652
"S134",0.281320369284058,2.78107953071594,"fast",176,858,0.353815453092956,TRUE,64,0.670669138431549,592.353454589844,-20.6967754364014,-0.185975283384323
"S134",0.283584373474121,2.25941562652588,"fast",175,1033,0.351316414328766,TRUE,65,0.694854915142059,-665.846008300781,-281.770263671875,0.957732200622559
"S134",0.371490960884094,1.21180903911591,"slow",0,1033,0.348817375564575,TRUE,66,0.662997543811798,-604.562377929688,-290.471466064453,-0.280365288257599
"S134",0.563181111526489,2.20651888847351,"slow",0,1033,0.351316414328766,TRUE,67,0.341701686382294,716.401611328125,-311.594329833984,-0.762871444225311
"S134",0.715409320068359,2.45029067993164,"missed",0,1033,0.353815453092956,FALSE,67,0.48070627450943,733.8232421875,-311.984222412109,0.86847585439682
"S134",0.365343296432495,2.3920567035675,"slow",0,1033,0.353846113463592,TRUE,68,0.420989602804184,-720.687194824219,-238.794586181641,-0.988588750362396
"S134",0.346657633209228,2.92274236679077,"fast",164,1197,0.353876773834228,TRUE,69,0.42265710234642,-620.31640625,101.16382598877,-0.40137243270874
"S134",0.321400365502929,2.31089973449707,"fast",169,1366,0.353846113463592,TRUE,70,0.41231831908226,-501.25,123.431610107422,0.63828432559967
"S134",0.343152035140991,2.61524796485901,"fast",165,1531,0.353815453092956,TRUE,71,0.305077314376831,609.976135253906,13.3168792724609,-0.937670826911926
"S134",0.291307086618042,3.31349301338196,"fast",174,1705,0.351316414328766,TRUE,72,0.676492631435394,-499.647888183594,-126.867164611816,0.965181052684784
"S134",0.387685773141479,3.17471432685852,"slow",0,1705,0.348817375564575,TRUE,73,0.395589560270309,-604.501037597656,139.934524536133,0.502476930618286
"S134",0.377722499139404,2.5596776008606,"slow",0,1705,0.351316414328766,TRUE,74,0.386546909809113,402.610748291016,-88.6830902099609,-0.929364740848541
"S134",0.324188501112366,1.27991139888763,"fast",168,1873,0.353815453092956,TRUE,75,0.551449537277222,-706.379943847656,-79.3083343505859,-0.539711594581604
"S134",0.399087232398987,1.62221276760101,"slow",0,1873,0.351316414328766,TRUE,76,0.432261645793915,-477.972717285156,-70.1308364868164,0.999728202819824
"S134",0.386085356330871,1.20751464366913,"slow",0,1873,0.353815453092956,TRUE,77,0.395256370306015,535.978515625,-157.627868652344,0.568763077259064
"S134",0.332249840982056,1.97965025901794,"fast",167,2040,0.353846113463592,TRUE,78,0.58890438079834,582.663879394531,-117.485290527344,-0.347524672746658
"S134",0.429170960617065,3.48752903938293,"slow",0,2040,0.353815453092956,TRUE,79,0.429427266120911,641.939575195312,-402.563323974609,-0.711241126060486
"S134",0.321739534759521,3.92766046524048,"fast",169,2209,0.353846113463592,TRUE,80,0.426814287900925,479.844299316406,-191.003967285156,-0.561563849449158
"S134",0.396557971954346,2.37544202804565,"slow",0,2209,0.353815453092956,TRUE,81,0.479638755321503,-459.108215332031,-78.6992721557617,0.926107704639435
"S134",0.368856440544128,1.62964355945587,"slow",0,2209,0.353846113463592,TRUE,82,0.349319279193878,585.0166015625,119.019393920898,0.876004040241241
"S134",0.722787017059326,2.19391298294067,"missed",0,2209,0.353876773834228,FALSE,82,0.621727764606476,470.710723876953,-174.011535644531,0.611030161380768
"S134",0.316359081976318,3.68424081802368,"fast",170,2379,0.355037048339844,TRUE,83,0.535621285438538,-668.037963867188,70.5742645263672,-0.527964532375336
"S134",0.385822816085815,2.00687718391418,"slow",0,2379,0.353876773834228,TRUE,84,0.447392225265503,414.516967773438,-283.454620361328,0.781172335147858
"S134",0.307112334060669,3.99318766593933,"fast",171,2550,0.355037048339844,TRUE,85,0.357906520366669,-349.928344726562,-341.046173095703,-0.954406976699829
"S134",0.376126523590088,1.78697347640991,"slow",0,2550,0.353876773834228,TRUE,86,0.577562987804413,-528.152160644531,-327.386840820312,-0.972904980182648
"S134",0.34269732913971,1.09440267086029,"fast",165,2715,0.355037048339844,TRUE,87,0.52838671207428,-591.107177734375,-262.482635498047,0.269457012414932
"S134",0.301100558853149,2.38599944114685,"fast",172,2887,0.353876773834228,TRUE,88,0.656239211559296,514.266418457031,-174.578063964844,0.416787922382355
"S134",0.27412760810852,3.87167239189148,"fast",177,3064,0.353846113463592,TRUE,89,0.607394397258759,-653.474487304688,30.0427894592285,0.463790327310562
"S134",0.302594863891601,2.7594051361084,"fast",172,3236,0.353815453092956,TRUE,90,0.645232975482941,-446.678039550781,-77.3574676513672,-0.0546356737613678
"S134",0.296329915618896,2.8462700843811,"fast",173,3409,0.351316414328766,TRUE,91,0.452972292900085,-606.4423828125,-150.035827636719,-0.875733971595764
"S134",0.371648097937012,1.08665180206299,"slow",0,3409,0.348817375564575,TRUE,92,0.584610223770142,-701.007141113281,-174.650604248047,-0.851434588432312
"S134",0.387889805412292,1.28271019458771,"slow",0,3409,0.351316414328766,TRUE,93,0.633037269115448,648.790649414062,-312.401519775391,-0.119583189487457
"S134",0.30242901802063,2.07007098197937,"fast",172,3581,0.353815453092956,TRUE,94,0.537582337856293,-456.706756591797,-326.791381835938,0.150086715817451
"S134",0.275470855331421,2.74462914466858,"fast",177,3758,0.351316414328766,TRUE,95,0.500325441360474,-414.441528320312,-11.8629837036133,0.992824196815491
"S134",0.296619012832641,3.93138098716736,"fast",173,3931,0.348817375564575,TRUE,96,0.520922899246216,574.41943359375,16.3475112915039,-0.943407773971558
"S134",0.3833528591156,1.8667471408844,"slow",0,3931,0.348703794288635,TRUE,97,0.633045613765717,744.125,-143.305923461914,0.773087382316589
"S134",0.401570306451416,2.80672979354858,"slow",0,3931,0.348817375564575,TRUE,98,0.520686507225037,397.74267578125,-55.3351364135742,0.955628991127014
"S134",0.31635144996643,1.68414855003357,"fast",169,4100,0.351316414328766,TRUE,99,0.521340250968933,-718.080749511719,-372.591033935547,0.162775874137878
"S134",0.295434461402893,1.51786553859711,"fast",173,4273,0.348817375564575,TRUE,100,0.662266552448273,-703.497680664062,-128.300064086914,-0.184499353170395
"S134",0.362725427191162,3.27717447280884,"slow",0,4273,0.348703794288635,TRUE,101,0.486521005630493,486.090576171875,-393.298645019531,-0.248149901628494
"S134",0.313414646148682,2.68758535385132,"fast",170,4443,0.348817375564575,TRUE,102,0.506593585014343,624.065124511719,-143.013092041016,0.982832670211792
"S134",0.28278660774231,2.52971339225769,"fast",175,4618,0.348703794288635,TRUE,103,0.464800596237183,-810.339477539062,-8.67422485351562,-0.683680832386017
"S134",0.279764020974731,1.88843607902527,"fast",176,4794,0.348590213012695,TRUE,104,0.457827568054199,-389.935668945312,-36.4778518676758,0.631108462810516
"S134",0.333833337728882,1.22446656227112,"fast",166,4960,0.347623923110962,TRUE,105,0.432882189750671,-524.113098144531,-308.331420898438,0.0151498317718506
"S049",0.457961358642578,2.07413864135742,"slow",0,0,0.375,TRUE,1,0.390776842832565,664.144714355469,-216.153182983398,0.649448037147522
"S049",0.339147117669678,2.64405298233032,"fast",175,175,0.457961358642578,TRUE,2,0.585655808448792,-426.914154052734,-226.700012207031,0.961261749267578
"S049",0.339891133935547,2.19340896606445,"fast",170,345,0.398554238156128,TRUE,3,0.439218163490295,-510.301147460938,-322.112609863281,0.743144869804382
"S049",0.29891931204071,1.66748058795929,"fast",171,516,0.339891133935547,TRUE,4,0.478153228759766,-797.176025390625,-225.509124755859,-0.342020034790039
"S049",0.255075961820984,1.66152393817902,"fast",180,696,0.339519125802612,TRUE,5,0.649842202663422,543.544921875,-332.039398193359,-0.968147754669189
"S049",0.326717166845703,2.7730827331543,"fast",166,862,0.339147117669678,TRUE,6,0.669081270694733,-750.005981445312,-20.487024307251,0.580702841281891
"S049",0.329781184005737,1.52001881599426,"fast",165,1027,0.33293214225769,TRUE,7,0.652310609817505,500.807525634766,-118.450668334961,0.587785184383392
"S049",0.270326536505127,2.56287336349487,"fast",176,1203,0.329781184005737,TRUE,8,0.492826700210571,776.187316894531,-388.851104736328,0.997564077377319
"S049",0.271416829299927,1.71178317070007,"fast",176,1379,0.32824917542572,TRUE,9,0.373175472021103,-336.224884033203,139.866180419922,0.182235717773438
"S049",-1.58195710443726,3.33185720443726,"early",-100,1279,0.326717166845703,FALSE,9,0,0,0,0
"S049",0.308759658241272,1.14114034175873,"fast",168,1447,0.326717166845703,TRUE,10,0.656120955944061,-502.830902099609,-17.7791576385498,-0.777146100997925
"S049",0.270081109237671,2.84661889076233,"fast",175,1622,0.317738412543487,TRUE,11,0.48782867193222,658.862670898438,-131.376220703125,0.052335761487484
"S049",0.307218496704102,3.9926815032959,"fast",166,1788,0.308759658241272,TRUE,12,0.565162599086761,-579.281616210938,-140.674560546875,0.453990757465363
"S049",0.286091958618164,1.53050804138184,"fast",170,1958,0.307989077472687,TRUE,13,0.54220050573349,-585.440063476562,-242.663040161133,-0.906307697296143
"S049",0.404069100952148,1.91253089904785,"slow",0,1958,0.307218496704102,TRUE,14,0.477680683135986,717.9130859375,90.0767440795898,0.366501092910767
"S049",0.349508582687378,1.86709141731262,"slow",0,1958,0.307989077472687,TRUE,15,0.36923423409462,335.70751953125,-155.211074829102,0.173648446798325
"S049",0.321314303779602,1.6285856962204,"slow",0,1958,0.308759658241272,TRUE,16,0.316709935665131,313.686004638672,-166.249572753906,-0.725374639034271
"S049",0.318731706047058,1.08116829395294,"slow",0,1958,0.315036981010437,TRUE,17,0.618063628673553,628.350036621094,-141.340377807617,0.983254849910736
"S049",0.287104994528198,3.8794949054718,"fast",171,2129,0.318731706047058,TRUE,18,0.399499654769897,374.440612792969,-217.720520019531,0.79863578081131
"S049",0.336813998222351,1.11318600177765,"slow",0,2129,0.313745682144165,TRUE,19,0.682661831378937,-606.360778808594,-308.268890380859,-0.923879683017731
"S049",0.271098603494262,2.94580149650574,"fast",175,2304,0.318731706047058,TRUE,20,0.324102878570557,-452.976501464844,192.046585083008,-3.27825546264648e-07
"S049",0.291415537261963,2.89198446273804,"fast",170,2474,0.313745682144165,TRUE,21,0.539591073989868,586.205810546875,-208.089538574219,0.438371419906616
"S049",0.330986656515503,3.2357132434845,"slow",0,2474,0.308759658241272,TRUE,22,0.563275933265686,630.9306640625,-44.9025459289551,-0.782607972621918
"S049",0.286634155654907,3.27976584434509,"fast",171,2645,0.313745682144165,TRUE,23,0.443523645401001,767.277465820312,-306.977600097656,0.573576211929321
"S049",0.349631706237793,2.61636829376221,"slow",0,0,0.308759658241272,TRUE,24,0.416677325963974,782.688720703125,113.408134460449,-0.42261791229248
"S049",0.343803545379639,2.67259645462036,"slow",0,0,0.313745682144165,TRUE,25,0.419404447078705,559.418395996094,-400.181488037109,0.275637000799179
"S049",0.637777431488037,2.24522256851196,"missed",0,0,0.318731706047058,FALSE,25,0.374461948871613,572.564880371094,78.96630859375,0.594822525978088
"S049",0.641825646591187,3.87487435340881,"missed",0,0,0.32002300491333,FALSE,25,0.375666946172714,-478.719757080078,-41.9628067016602,-0.814055025577545
"S049",0.310161656134033,1.55593824386597,"fast",167,167,0.321314303779602,TRUE,26,0.602723658084869,579.653564453125,-168.28938293457,-0.9508296251297
"S049",0.266957736914062,3.76634216308594,"fast",176,343,0.32002300491333,TRUE,27,0.309565544128418,-290.597076416016,-252.964630126953,-0.113931924104691
"S049",0.319595646858215,1.13040435314178,"slow",0,343,0.318731706047058,TRUE,28,0.536437749862671,-467.879333496094,-366.24853515625,0.98493492603302
"S049",0.262807654135132,3.52079224586487,"fast",176,519,0.319163676452637,TRUE,29,0.394996076822281,-713.895812988281,131.756927490234,-0.077727846801281
"S049",0.251863119451904,2.2978367805481,"fast",179,698,0.318731706047058,TRUE,30,0.636890232563019,730.98193359375,-352.711944580078,-0.258110463619232
"S049",0.289908266067505,2.5600917339325,"fast",170,868,0.314446681090546,TRUE,31,0.662757575511932,-556.327453613281,-263.775329589844,-0.930686175823212
"S049",0.254246641104126,1.47905325889587,"fast",177,1045,0.310161656134033,TRUE,32,0.467594981193542,743.067626953125,112.071243286133,-0.930686175823212
"S049",0.274119064657592,3.57558083534241,"fast",173,1218,0.309460657187652,TRUE,33,0.313807427883148,-734.525756835938,146.721542358398,-0.0443521440029144
"S049",0.323031747381592,3.47686815261841,"slow",0,1218,0.308759658241272,TRUE,34,0.662787139415741,372.282745361328,-202.809631347656,0.923598647117615
"S049",0.278615907287597,2.0549840927124,"fast",172,1390,0.309460657187652,TRUE,35,0.63573545217514,622.1484375,-225.559722900391,0.9565190076828
"S049",0.301099014282226,2.89890098571777,"fast",167,1557,0.308759658241272,TRUE,36,0.527071595191956,406.300567626953,-169.498321533203,0.910265147686005
"S049",0.434752071325684,1.24804782867432,"slow",0,1557,0.307989077472687,TRUE,37,0.556245625019073,354.322143554688,35.5340957641602,0.616239309310913
"S049",0.234268539755249,3.29893136024475,"fast",181,1738,0.308759658241272,TRUE,38,0.481018662452698,-404.280090332031,-220.086959838867,-0.9999680519104
"S049",0.29583188852539,3.08736801147461,"fast",168,1906,0.307989077472687,TRUE,39,0.324426472187042,757.950073242188,-346.029815673828,0.948090672492981
"S049",0.305872624723816,1.17732727527618,"fast",166,2072,0.307218496704102,TRUE,40,0.51686304807663,-710.797607421875,-304.823974609375,0.970472931861877
"S049",0.255632234899902,2.2605676651001,"fast",177,2249,0.306545560713959,TRUE,41,0.355002701282501,-837.090393066406,-251.6259765625,0.500635147094727
"S049",-1.49327661437988,2.17657661437988,"early",-100,2149,0.305872624723816,FALSE,41,0,0,0,0
"S049",0.361134162902832,1.05486583709717,"slow",0,2149,0.305872624723816,TRUE,42,0.662962138652802,-757.892883300781,-97.8161773681641,-0.608179330825806
"S049",0.298398455865478,3.70100164413452,"fast",167,2316,0.306545560713959,TRUE,43,0.30652904510498,-857.464599609375,-72.980339050293,-0.808585643768311
"S049",0.275440612792969,1.69055938720703,"fast",172,2488,0.305872624723816,TRUE,44,0.635789453983307,570.590393066406,-274.328460693359,-0.993654608726501
"S049",0.301547560119629,1.81535243988037,"fast",166,2654,0.303485819503021,TRUE,45,0.487592875957489,383.626251220703,87.5137786865234,-0.824541449546814
"S049",0.28459678712616,1.29870331287384,"fast",170,2824,0.301547560119629,TRUE,46,0.536489903926849,504.533508300781,39.876335144043,0.155709892511368
"S049",0.273106150054932,1.42629384994507,"fast",172,2996,0.301323287200927,TRUE,47,0.355899631977081,-336.040374755859,-346.795593261719,0.842997074127197
"S049",0.288513711929321,1.77798628807068,"fast",169,3165,0.301099014282226,TRUE,48,0.62530916929245,-679.402465820312,-322.823120117188,0.131253361701965
"S049",0.309518072836304,1.2230818271637,"slow",0,0,0.300009163161468,TRUE,49,0.302827060222626,-380.772521972656,70.0430450439453,-0.983388364315033
"S049",0.413502359771728,3.86939764022827,"slow",0,0,0.301099014282226,TRUE,50,0.66152685880661,-463.629730224609,-204.749862670898,-0.0791904032230377
"S049",0.262982932608032,3.05341696739197,"fast",175,175,0.301323287200927,TRUE,51,0.49349570274353,409.804504394531,35.2193298339844,0.97011798620224
"S049",0.304202893829346,1.67939710617065,"slow",0,175,0.301099014282226,TRUE,52,0.312983632087708,660.576232910156,-246.326309204102,0.99134886264801
"S049",0.334392245809936,1.29900765419006,"slow",0,175,0.301323287200927,TRUE,53,0.500277876853943,402.738800048828,39.2297668457031,-0.190088897943497
"S049",0.326672064399719,1.18992793560028,"slow",0,175,0.301547560119629,TRUE,54,0.62239408493042,458.949066162109,-40.1589813232422,-0.266531497240067
"S049",0.318530672399902,3.2146692276001,"slow",0,175,0.302875226974487,TRUE,55,0.441524118185043,-465.707092285156,-293.886749267578,-0.391406118869781
"S049",0.300692735345459,2.98260736465454,"fast",167,342,0.304202893829346,TRUE,56,0.429266065359116,-536.717834472656,-380.608306884766,0.439030289649963
"S049",0.265856149728394,3.56734395027161,"fast",174,516,0.302875226974487,TRUE,57,0.64192920923233,647.722900390625,-309.709930419922,-0.357683062553406
"S049",0.342436257362366,1.02356374263763,"slow",0,516,0.301547560119629,TRUE,58,0.484176635742188,758.70458984375,-52.9196548461914,-0.737772822380066
"S049",0.361788277053833,3.28761172294617,"slow",0,516,0.302875226974487,TRUE,59,0.369908094406128,-682.943603515625,157.049026489258,0.349520087242126
"S049",0.296684099142456,2.33661580085754,"fast",168,684,0.304202893829346,TRUE,60,0.660817325115204,-635.394470214844,-220.105484008789,0.978299915790558
"S049",0.349541715621948,2.96695828437805,"slow",0,684,0.302875226974487,TRUE,61,0.388185113668442,-382.682891845703,-87.2970199584961,-0.736781477928162
"S049",0.239024654443359,3.94467544555664,"fast",180,864,0.304202893829346,TRUE,62,0.648362576961517,-638.928405761719,-217.220947265625,0.172925561666489
"S049",0.296998204858398,2.7528018951416,"fast",167,1031,0.302875226974487,TRUE,63,0.591120064258575,694.843872070312,-274.416351318359,0.755190789699554
"S049",0.31066241645813,2.60583758354187,"slow",0,1031,0.301547560119629,TRUE,64,0.512913584709167,405.803497314453,-9.74015045166016,-0.628749966621399
"S049",0.359862628555298,1.8732373714447,"slow",0,1031,0.302875226974487,TRUE,65,0.679273188114166,491.50146484375,-284.5712890625,-0.567010879516602
"S049",0.230279956491089,3.40302014350891,"fast",182,1213,0.304202893829346,TRUE,66,0.580279111862183,-475.896636962891,-174.451599121094,0.608179092407227
"S049",0.316101195962524,2.38419890403748,"slow",0,1213,0.302875226974487,TRUE,67,0.603826940059662,780.774963378906,-145.77473449707,0.995466291904449
"S049",0.246401143972778,3.63689875602722,"fast",178,1391,0.304202893829346,TRUE,68,0.434327095746994,-382.075378417969,101.997894287109,-0.56580126285553
"S049",0.251276252420044,1.88152384757996,"fast",177,1568,0.302875226974487,TRUE,69,0.471859753131866,-528.3876953125,-194.571258544922,-0.700385630130768
"S049",0.256665990502929,3.92613410949707,"fast",176,1744,0.301547560119629,TRUE,70,0.619043052196503,657.587768554688,-112.792999267578,-0.700385630130768
"S049",0.30661216073761,1.67658793926239,"slow",0,1744,0.301323287200927,TRUE,71,0.646453678607941,476.766052246094,-172.202514648438,-0.293073564767838
"S049",0.352782767105102,3.9300172328949,"slow",0,1744,0.301547560119629,TRUE,72,0.683124482631683,-484.889251708984,-245.700149536133,0.967963576316833
"S049",0.254312460327148,2.04558753967285,"fast",177,1921,0.302875226974487,TRUE,73,0.506085634231567,515.742126464844,-249.252822875977,0.485451370477676
"S049",-1.96542221303711,2.86532211303711,"early",-100,1821,0.301547560119629,FALSE,73,0,0,0,0
"S049",0.282830708830261,1.25036919116974,"fast",170,1991,0.301547560119629,TRUE,74,0.36954528093338,-446.257263183594,83.5691680908203,-0.879167079925537
"S049",0.362802854156494,1.42029714584351,"slow",0,1991,0.301323287200927,TRUE,75,0.458162486553192,679.697570800781,-201.524185180664,0.999015986919403
"S049",0.260336859703064,1.12266314029694,"fast",175,2166,0.301547560119629,TRUE,76,0.437674850225449,-616.136901855469,-98.1663970947266,0.743635714054108
"S049",0.266147827584839,1.28345227241516,"fast",174,2340,0.301323287200927,TRUE,77,0.491479098796844,-786.644775390625,-257.726501464844,-0.833480536937714
"S049",0.298664362008667,1.70103573799133,"fast",167,2507,0.301099014282226,TRUE,78,0.584772348403931,-666.482666015625,-260.125061035156,-0.00946033094078302
"S049",0.307851263046265,1.87564873695374,"slow",0,2507,0.300895874813843,TRUE,79,0.31609058380127,-674.303039550781,-275.247619628906,0.818730890750885
"S049",0.343776931436157,1.00602316856384,"slow",0,2507,0.301099014282226,TRUE,80,0.384688049554825,677.328979492188,134.565780639648,-0.232731610536575
"S049",-0.803232145309448,2.35323214530945,"early",-100,2407,0.301323287200927,FALSE,80,0,0,0,0
"S049",0.371557638931274,2.22874236106873,"slow",0,2407,0.301323287200927,TRUE,81,0.436185568571091,-800.1826171875,-198.685455322266,-0.476513624191284
"S049",0.349077951049805,3.5675220489502,"slow",0,2407,0.301547560119629,TRUE,82,0.516978144645691,779.430053710938,-259.048645019531,-0.0617812015116215
"S049",0.273360561425781,3.74333953857422,"fast",172,2579,0.302875226974487,TRUE,83,0.649464070796967,-536.058349609375,-174.18620300293,0.98640650510788
"S049",0.376447432844544,1.65675246715546,"slow",0,2579,0.301547560119629,TRUE,84,0.504138231277466,-562.764831542969,-378.928131103516,-0.38200506567955
"S049",0.313480518014526,2.21931958198547,"slow",0,2579,0.302875226974487,TRUE,85,0.363468289375305,-387.600036621094,17.9814224243164,-0.772091329097748
"S049",0.3563729763031,2.2936270236969,"slow",0,2579,0.304202893829346,TRUE,86,0.483503580093384,-562.830200195312,-33.3840408325195,-0.208629637956619
"S049",0.324337220191955,1.27566277980804,"slow",0,2579,0.305037759276581,TRUE,87,0.57193398475647,749.466613769531,-263.361999511719,0.865658104419708
"S049",0.259726957702636,3.33967304229736,"fast",176,2755,0.305872624723816,TRUE,88,0.502618908882141,-750.635620117188,-106.087005615234,-0.724868834018707
"S049",0.247423337991333,2.36927676200867,"fast",178,2933,0.305037759276581,TRUE,89,0.388933330774307,-789.473754882812,-148.404327392578,-0.431173622608185
"S049",0.034180330331421,2.83251976966858,"fast",200,3133,0.304202893829346,TRUE,90,0.547392010688782,-775.225219726562,-81.5576324462891,0.138446062803268
"S049",-1.11168983721008,3.89408993721008,"early",-100,3033,0.302875226974487,FALSE,90,0,0,0,0
"S049",0.294409595544433,3.77179050445557,"fast",168,3201,0.302875226974487,TRUE,91,0.586016893386841,521.999755859375,-32.5354118347168,0.454644501209259
"S049",0.331725215911865,2.01827478408813,"slow",0,3201,0.301547560119629,TRUE,92,0.370987981557846,821.488830566406,-242.158004760742,-0.787558555603027
"S049",0.285996591186523,3.53060340881348,"fast",170,3371,0.302875226974487,TRUE,93,0.696395814418793,544.225769042969,-228.700668334961,0.558584094047546
"S049",0.309944102532959,3.38995599746704,"slow",0,3371,0.301547560119629,TRUE,94,0.427088469266891,683.476318359375,123.272468566895,-0.398075640201569
"S049",0.304325275802612,1.69607472419739,"slow",0,3371,0.302875226974487,TRUE,95,0.498045206069946,-560.721923828125,-52.4680404663086,-0.431173771619797
"S049",0.308269588851929,3.64163041114807,"slow",0,3371,0.304202893829346,TRUE,96,0.601941347122192,-485.768463134766,-222.280731201172,0.956089854240417
"S049",0.407269150488281,3.75933074951172,"slow",0,3371,0.304264084815979,TRUE,97,0.344817101955414,733.706726074219,-157.174011230469,-0.78215092420578
"S049",0.278490698297119,3.17160940170288,"fast",171,3542,0.304325275802612,TRUE,98,0.30761057138443,-543.772827148438,-156.664932250977,-0.0356333255767822
"S049",0.332200387954712,2.03429961204529,"slow",0,3542,0.304264084815979,TRUE,99,0.554135203361511,-703.870910644531,-135.749954223633,0.78846263885498
"S049",0.296092844009399,1.3039071559906,"fast",168,3710,0.304325275802612,TRUE,100,0.54254412651062,-730.737609863281,-312.888305664062,0.676131427288055
"S049",0.346205154418945,1.61979484558105,"slow",0,3710,0.304264084815979,TRUE,101,0.456786513328552,-633.035400390625,-383.46435546875,-0.615082740783691
"S049",0.260268072128296,3.1062319278717,"fast",175,3885,0.304325275802612,TRUE,102,0.683667480945587,603.435485839844,-19.4133281707764,-0.663169801235199
"S049",0.32778263092041,1.67221736907959,"slow",0,3885,0.304264084815979,TRUE,103,0.699855029582977,-499.150146484375,-226.422378540039,-0.38336169719696
"S049",0.29993553041687,2.63366436958313,"fast",167,4052,0.304325275802612,TRUE,104,0.620758295059204,632.873229980469,-126.438400268555,0.669676184654236
"S049",0.326549745504761,2.45675015449524,"slow",0,4052,0.304264084815979,TRUE,105,0.567315340042114,775.497680664062,-15.1656532287598,-0.648889422416687
"S049",0.254718941061401,3.8284809589386,"fast",177,4229,0.304325275802612,TRUE,106,0.510003209114075,-787.825622558594,-216.239486694336,-0.990165650844574
"S049",0.311648849050903,2.4542510509491,"slow",0,4229,0.304264084815979,TRUE,107,0.679867327213287,-504.596374511719,-146.361587524414,0.0516025125980377
"S049",0.325761216790772,2.44053888320923,"slow",0,4229,0.304325275802612,TRUE,108,0.44678795337677,692.988952636719,121.414886474609,0.978300034999847
"S049",0.3027449050354,3.2136549949646,"fast",166,4395,0.305098950263214,TRUE,109,0.650207459926605,-682.533630371094,-126.337173461914,0.367184460163116
"S049",0.333451639230347,3.28274846076965,"slow",0,4395,0.304325275802612,TRUE,110,0.422327250242233,-380.059356689453,-254.571411132812,-0.999999761581421
"S049",0.312409980773926,2.07059001922607,"slow",0,4395,0.305098950263214,TRUE,111,0.476097226142883,-687.526611328125,-104.464416503906,0.992456376552582
"S049",0.336304917907715,1.84679508209229,"slow",0,4395,0.305872624723816,TRUE,112,0.510527491569519,643.94921875,-380.652160644531,0.999080002307892
"S049",0.346597532272339,3.26990246772766,"slow",0,4395,0.306242392730713,TRUE,113,0.696810066699982,467.262451171875,-229.081665039062,-0.484167098999023
"S049",0.296379445648193,3.01972055435181,"fast",168,4563,0.30661216073761,TRUE,114,0.50294691324234,-416.44775390625,45.5901107788086,-0.131254523992538
"S049",0.322715460395813,1.39388453960419,"slow",0,4563,0.306242392730713,TRUE,115,0.321689546108246,-371.098693847656,64.495002746582,0.737773478031158
"S049",0.252119068145752,2.01438093185425,"fast",177,4740,0.30661216073761,TRUE,116,0.579630613327026,-595.878540039062,-182.803253173828,-0.967963457107544
"S049",0.267390632629394,1.63260936737061,"fast",174,4914,0.306242392730713,TRUE,117,0.524906158447266,408.705352783203,-359.968536376953,0.51440817117691
"S049",0.328808627755737,1.85449147224426,"slow",0,4914,0.305872624723816,TRUE,118,0.332036793231964,784.056396484375,-62.3557510375977,0.819573283195496
"S049",0.294075294494629,2.48942470550537,"fast",168,5082,0.306242392730713,TRUE,119,0.339833199977875,798.008117675781,-377.773773193359,-0.687821507453918
"S049",0.395904995727539,1.52089500427246,"slow",0,5082,0.305872624723816,TRUE,120,0.50884485244751,510.137512207031,-121.815559387207,-0.847658574581146
"S049",0.388785618154907,2.29441428184509,"slow",0,5082,0.306242392730713,TRUE,121,0.449186325073242,707.074462890625,-33.7669067382812,-0.0269113481044769
"S049",0.272134636633301,2.3114652633667,"fast",173,5255,0.30661216073761,TRUE,122,0.626174211502075,-768.41796875,-331.657531738281,0.300005078315735
"S129",0.410593015670776,1.67140698432922,"slow",0,0,0.375,TRUE,1,0.333312690258026,-490.384338378906,-55.1232757568359,0.809017062187195
"S129",0.378716142654419,3.80428385734558,"fast",165,165,0.410593015670776,TRUE,2,0.584460556507111,425.631713867188,35.3512802124023,-0.898794114589691
"S129",0.300991774368286,2.46480822563171,"fast",176,341,0.394654579162597,TRUE,3,0.698132932186127,-588.219116210938,-362.072845458984,0.725374281406403
"S129",0.361785284042358,2.55421471595764,"fast",165,506,0.378716142654419,TRUE,4,0.65046900510788,-576.924011230469,-353.90576171875,0.942641496658325
"S129",0.41151952108612,1.12168037891388,"slow",0,506,0.370250713348389,TRUE,5,0.411216586828232,-332.831695556641,-372.336242675781,0.917060136795044
"S129",0.327954313604736,2.62174558639526,"fast",170,676,0.378716142654419,TRUE,6,0.565024554729462,644.429382324219,81.6001358032227,0.809017062187195
"S129",0.301892637634277,3.78000736236572,"fast",174,850,0.370250713348389,TRUE,7,0.499672770500183,682.143188476562,-138.160308837891,-0.913545489311218
"S129",0.386546747589111,1.61335325241089,"slow",0,850,0.361785284042358,TRUE,8,0.51179713010788,569.406982421875,-126.43238067627,0.760406017303467
"S129",0.350468466949462,3.78273153305054,"fast",166,1016,0.370250713348389,TRUE,9,0.358944892883301,658.452026367188,-440.074859619141,-0.267238289117813
"S129",0.330803970336914,2.53569602966309,"fast",168,1184,0.361785284042358,TRUE,10,0.396133959293365,371.681457519531,-31.2668762207031,0.12186923623085
"S129",0.302002155303955,3.44749784469604,"fast",172,1356,0.35612687549591,TRUE,11,0.471662878990173,594.435791015625,-117.530158996582,0.788010895252228
"S129",0.330762361145019,3.58533763885498,"fast",167,1523,0.350468466949462,TRUE,12,0.351986169815063,689.876953125,76.7837142944336,-0.999048233032227
"S129",0.316296908187866,2.53300309181213,"fast",168,1691,0.340636218643188,TRUE,13,0.475415647029877,-393.950103759766,115.475646972656,0.587785065174103
"S129",0.327990972137451,3.03860902786255,"fast",165,1856,0.330803970336914,TRUE,14,0.552612066268921,-620.883361816406,49.1616668701172,0.798635721206665
"S129",0.386319835662842,2.34668016433716,"slow",0,1856,0.330783165740967,TRUE,15,0.676490843296051,-483.575012207031,-279.77099609375,-0.906307697296143
"S129",0.353825839559936,3.37957406044006,"slow",0,1856,0.330803970336914,TRUE,16,0.419865310192108,-642.161743164062,-327.170104980469,-0.438371390104294
"S129",0.347045127813721,2.70225477218628,"slow",0,1856,0.340636218643188,TRUE,17,0.534354209899902,-433.948669433594,-338.208953857422,0.551937341690063
"S129",0.339133942086792,2.16096615791321,"fast",165,2021,0.347045127813721,TRUE,18,0.666157305240631,627.31201171875,35.7488555908203,-0.990267992019653
"S129",0.437929773275757,1.09437012672424,"slow",0,2021,0.343089534950256,TRUE,19,0.468890964984894,567.436889648438,107.199005126953,-0.809017181396484
"S129",0.320093057687378,3.09560704231262,"fast",168,2189,0.347045127813721,TRUE,20,0.408770531415939,-308.1513671875,-153.497985839844,-0.309017360210419
"S129",0.317461039297485,2.53163886070251,"fast",168,2357,0.343089534950256,TRUE,21,0.305159032344818,784.948852539062,130.395233154297,0.725374639034271
"S129",0.429098416574097,1.8873016834259,"slow",0,2357,0.339133942086792,TRUE,22,0.392809063196182,400.687927246094,-374.761505126953,-0.939692735671997
"S129",0.467979844093322,1.61502015590668,"slow",0,2357,0.343089534950256,TRUE,23,0.305585861206055,753.710632324219,32.3921966552734,-0.333807200193405
"S129",0.34224562353363,1.12455427646637,"fast",164,2521,0.347045127813721,TRUE,24,0.683426082134247,507.101684570312,-201.642593383789,0.814115762710571
"S129",0.621985790007019,1.00961410999298,"slow",0,0,0.344645375673675,TRUE,25,0.506540536880493,-714.410827636719,-418.025329589844,0.79863578081131
"S129",0.333863824899292,2.26533627510071,"fast",166,166,0.347045127813721,TRUE,26,0.302209913730621,779.948059082031,-232.942901611328,-0.0784587860107422
"S129",0.304089400918579,2.92871069908142,"fast",171,337,0.344645375673675,TRUE,27,0.698746502399445,670.492431640625,4.39906883239746,-0.0261772871017456
"S129",0.338224577386474,1.91137552261353,"fast",164,501,0.34224562353363,TRUE,28,0.396205097436905,-499.671997070312,23.5867767333984,0.991444826126099
"S129",0.351896833474731,3.41480326652527,"slow",0,501,0.340689782810211,TRUE,29,0.452725291252136,-605.082214355469,10.4088745117188,0.992546141147614
"S129",0.387411348342895,2.8295886516571,"slow",0,501,0.34224562353363,TRUE,30,0.33780837059021,719.625915527344,-207.029602050781,-0.913545310497284
"S129",0.301950037765503,3.5633499622345,"fast",171,672,0.344645375673675,TRUE,31,0.517908692359924,-506.062744140625,38.2051315307617,-0.760406315326691
"S129",0.623573839187622,1.47592616081238,"slow",0,672,0.34224562353363,TRUE,32,0.562616109848022,-612.943481445312,-281.035430908203,0.814115881919861
"S129",-1.67980698776245,2.41280698776245,"early",-100,572,0.344645375673675,FALSE,32,0,0,0,0
"S129",0.372576354217529,2.81062364578247,"slow",0,572,0.344645375673675,TRUE,33,0.47413581609726,486.261352539062,130.162261962891,-0.898793756961823
"S129",0.382781864492798,2.1834180355072,"slow",0,572,0.347045127813721,TRUE,34,0.392924308776855,589.657470703125,203.735717773438,-0.819152414798737
"S129",0.377082025146485,3.93951797485352,"slow",0,572,0.348756797381591,TRUE,35,0.435996502637863,710.040832519531,-218.216796875,0.974369943141937
"S129",0.38601039352417,3.43088960647583,"slow",0,572,0.350468466949462,TRUE,36,0.42972406744957,700.87548828125,-390.886962890625,0.978147685527802
"S129",0.303966152627563,3.34613394737244,"fast",172,744,0.351182650212097,TRUE,37,0.331645846366882,640.957885742188,-414.12939453125,-0.991444766521454
"S129",0.473522225379944,1.24247777462006,"slow",0,744,0.350468466949462,TRUE,38,0.302496075630188,394.075988769531,-95.8095855712891,0.930417358875275
"S129",0.471833549554443,1.09436655044556,"slow",0,744,0.351182650212097,TRUE,39,0.514317393302917,633.258972167969,-119.864273071289,-0.50753790140152
"S129",0.363517367362976,1.13598263263702,"slow",0,744,0.351896833474731,TRUE,40,0.652195632457733,580.482421875,-89.4965286254883,-0.6018146276474
"S129",0.376891855239868,1.63960814476013,"slow",0,744,0.352861336517334,TRUE,41,0.395733207464218,-714.999938964844,-193.055358886719,-0.760405659675598
"S129",0.55752555847168,2.17497444152832,"slow",0,744,0.353825839559936,TRUE,42,0.529641687870026,-349.404144287109,-40.5615768432617,0.453990042209625
"S129",0.352967008018493,1.66293299198151,"fast",164,908,0.357805561801147,TRUE,43,0.556723296642303,439.51806640625,-49.2560272216797,0.719339430332184
"S129",0.457941077041626,1.74235892295837,"slow",0,908,0.353825839559936,TRUE,44,0.429501742124557,711.108093261719,-85.9230575561523,0.999657332897186
"S129",0.422035932540894,3.57796406745911,"slow",0,908,0.357805561801147,TRUE,45,0.556089401245117,596.792907714844,64.737060546875,0.887011110782623
"S129",0.339013053567505,3.7602870464325,"fast",167,1075,0.361785284042358,TRUE,46,0.505831122398376,-357.724304199219,73.6228485107422,-0.104527920484543
"S129",0.446606710488891,1.58659338951111,"slow",0,1075,0.357805561801147,TRUE,47,0.687750041484833,-573.256713867188,-274.453430175781,-0.994521856307983
"S129",0.446381860406494,2.51941823959351,"slow",0,1075,0.361785284042358,TRUE,48,0.35731714963913,-463.527496337891,-133.278823852539,0.993571817874908
"S129",0.372774924087524,2.69352507591248,"slow",0,1075,0.362651325702667,TRUE,49,0.519600212574005,-399.187377929688,126.814498901367,0.999390840530396
"S129",0.732526466696167,1.86717343330383,"missed",0,1075,0.363517367362976,FALSE,49,0.407382279634476,-607.035461425781,-31.6239318847656,-0.98768824338913
"S129",0.467506092779541,2.24859380722046,"slow",0,1075,0.368046860790253,TRUE,50,0.63081818819046,501.986145019531,-223.42253112793,0.996876120567322
"S129",0.377855569512939,2.48894453048706,"slow",0,1075,0.372576354217529,TRUE,51,0.525470376014709,683.643188476562,-363.212493896484,0.834175109863281
"S129",0.340417994308472,3.27588200569153,"fast",168,1243,0.372675639152527,TRUE,52,0.325517356395721,-655.546875,-434.726440429688,-0.628912806510925
"S129",0.459663763999939,1.60633623600006,"slow",0,1243,0.372576354217529,TRUE,53,0.685186207294464,-425.082275390625,-116.078140258789,-0.675976693630219
"S129",0.419854993438721,2.37974500656128,"slow",0,1243,0.372675639152527,TRUE,54,0.532194375991821,495.330535888672,79.0364837646484,0.36601334810257
"S129",0.432253141403198,2.6502468585968,"slow",0,1243,0.372774924087524,TRUE,55,0.317603826522827,-558.591186523438,218.723907470703,0.970168769359589
"S129",0.424115800857544,2.22588419914246,"slow",0,1243,0.374833389663696,TRUE,56,0.49635910987854,701.45068359375,-99.6806411743164,0.999966382980347
"S129",0.300867660522461,3.58213233947754,"fast",175,1418,0.376891855239868,TRUE,57,0.660742282867432,555.340454101562,-104.963073730469,0.743495643138885
"S129",0.300265584619141,3.33303451538086,"fast",174,1592,0.374833389663696,TRUE,58,0.374082535505295,-749.642639160156,-153.488372802734,-0.999071002006531
"S129",0.34565393447876,2.63684606552124,"fast",167,1759,0.372774924087524,TRUE,59,0.317762911319733,374.102172851562,-279.470520019531,-0.485268235206604
"S129",0.266763717706298,3.4829363822937,"fast",180,1939,0.372675639152527,TRUE,60,0.601077258586884,639.473693847656,-96.5252532958984,0.814419984817505
"S129",0.343853790338135,3.95584630966187,"fast",167,2106,0.372576354217529,TRUE,61,0.500420987606049,-579.422729492188,80.8281860351562,-0.891244530677795
"S129",0.470717903518677,1.64568209648132,"slow",0,2106,0.368046860790253,TRUE,62,0.621713399887085,610.279052734375,-26.5438919067383,0.104006834328175
"S129",0.308775102233886,2.75782489776611,"fast",173,2279,0.372576354217529,TRUE,63,0.590615510940552,408.655944824219,-176.789672851562,0.988938212394714
"S129",0.399625847189331,3.60007405281067,"slow",0,2279,0.368046860790253,TRUE,64,0.549374580383301,-556.753173828125,88.3000030517578,0.530363976955414
"S129",0.386744863565063,2.46295523643494,"slow",0,2279,0.372576354217529,TRUE,65,0.526332259178162,-570.548156738281,76.3585739135742,-0.771290838718414
"S129",-1.32209622388611,3.02189612388611,"early",-100,2179,0.372675639152527,FALSE,65,0,0,0,0
"S129",0.453218307550049,1.37948179244995,"slow",0,2179,0.372675639152527,TRUE,66,0.39818748831749,-368.647003173828,-251.953002929688,0.476697564125061
"S129",0.307135432870483,3.65916466712952,"fast",173,2352,0.372774924087524,TRUE,67,0.425389260053635,-318.662017822266,-47.5476226806641,0.573146522045135
"S129",0.549127646691894,3.34977245330811,"slow",0,2352,0.372675639152527,TRUE,68,0.492714107036591,438.892181396484,-172.847259521484,-0.291869819164276
"S129",0.495347988128662,1.05415201187134,"slow",0,2352,0.372774924087524,TRUE,69,0.692661464214325,-533.116333007812,-26.4621772766113,-0.966061592102051
"S129",0.440267302267456,3.10883259773254,"slow",0,2352,0.374833389663696,TRUE,70,0.528995513916016,-606.724914550781,-352.389892578125,0.995345771312714
"S129",0.40153387184143,3.46466612815857,"slow",0,2352,0.376891855239868,TRUE,71,0.521421313285828,541.599609375,-371.622497558594,-0.909743547439575
"S129",0.429437938308716,2.30366206169128,"slow",0,2352,0.376986940193176,TRUE,72,0.626560032367706,670.885009765625,60.0087738037109,-0.999071002006531
"S129",0.408687183706665,2.84101271629333,"slow",0,2352,0.377082025146485,TRUE,73,0.562235295772552,-659.854370117188,-131.771575927734,0.104006461799145
"S129",0.387061270141602,2.6788387298584,"slow",0,2352,0.377468797329712,TRUE,74,0.301414012908936,-342.438232421875,161.918365478516,-0.0518117137253284
"S129",0.408506231634521,1.87419366836548,"slow",0,2352,0.377855569512939,TRUE,75,0.651229321956635,-456.607086181641,-154.881469726562,-0.636483192443848
"S129",0.409098416519165,3.20710158348083,"slow",0,2352,0.378285856083679,TRUE,76,0.446191787719727,519.058044433594,-146.263671875,0.999372363090515
"S129",0.423514486639404,1.3926854133606,"slow",0,2352,0.378716142654419,TRUE,77,0.356122732162476,-730.890991210938,-73.0411529541016,-0.694280564785004
"S129",0.417040589086914,2.08305931091309,"slow",0,2352,0.380749003573608,TRUE,78,0.519152164459229,-596.507141113281,-119.458023071289,-0.902811229228973
"S129",0.357143109130859,2.32565689086914,"fast",166,2518,0.382781864492798,TRUE,79,0.39178729057312,-541.693969726562,-357.211853027344,0.249871507287025
"S129",0.436674118041992,2.06332588195801,"slow",0,2518,0.380749003573608,TRUE,80,0.569153428077698,-485.777160644531,-11.22412109375,0.233956053853035
"S129",0.407131980950928,3.10956811904907,"slow",0,2518,0.382781864492798,TRUE,81,0.413710206747055,-411.789947509766,30.6048355102539,-0.719704627990723
"S129",0.410570401763916,3.53902959823608,"slow",0,2518,0.384396129008484,TRUE,82,0.421791523694992,-670.555908203125,-374.122955322266,0.754364848136902
"S129",0.40549957013855,2.27690052986145,"slow",0,2518,0.38601039352417,TRUE,83,0.474967241287231,-323.062103271484,-389.553131103516,0.182751893997192
"S129",0.429140420913696,2.1543595790863,"slow",0,2518,0.386165114593506,TRUE,84,0.642420709133148,-577.717590332031,-279.67626953125,-0.999957203865051
"S129",0.414871670150757,2.36902832984924,"slow",0,2518,0.386319835662842,TRUE,85,0.326628148555756,-588.263366699219,58.6555709838867,-0.530364632606506
"S129",0.564669749887085,1.71813035011292,"slow",0,2518,0.386433291625977,TRUE,86,0.342526197433472,693.692565917969,217.019744873047,-0.399230718612671
"S129",0.315814577157592,2.75038552284241,"fast",173,2691,0.386546747589111,TRUE,87,0.375118494033813,-389.471557617188,-186.962524414062,0.522050619125366
"S129",0.428171560232544,2.53862833976746,"slow",0,2691,0.386433291625977,TRUE,88,0.567728281021118,-578.968505859375,-29.1606292724609,0.981526851654053
"S129",0.412254545593262,2.10514545440674,"slow",0,2691,0.386546747589111,TRUE,89,0.449390649795532,-371.709899902344,-139.122222900391,-0.615247547626495
"S129",0.531323183059692,2.66917681694031,"slow",0,2691,0.386645805577087,TRUE,90,0.472139596939087,-423.893829345703,-56.2851486206055,-0.996958494186401
"S129",0.455021904563904,1.1610780954361,"slow",0,2691,0.386744863565063,TRUE,91,0.470562696456909,655.123229980469,-189.065338134766,0.828743875026703
"S129",0.417077292687988,2.04982280731201,"slow",0,2691,0.386903066853332,TRUE,92,0.562870621681213,-701.546936035156,97.5188369750977,0.996958434581757
"S129",0.398978156661987,2.95062184333801,"slow",0,2691,0.387061270141602,TRUE,93,0.633565008640289,532.803405761719,-214.00959777832,0.891244769096375
"S129",0.446996602304077,3.00240349769592,"slow",0,2691,0.387236309242248,TRUE,94,0.456551909446716,626.813842773438,-299.465637207031,0.25088831782341
"S129",0.409199694116211,2.90690040588379,"slow",0,2691,0.387411348342895,TRUE,95,0.654633462429047,-563.415283203125,-350.5244140625,-0.707477986812592
"S129",0.542761010224915,1.00643908977509,"slow",0,2691,0.393194752502441,TRUE,96,0.514645159244537,-690.930786132812,-378.626617431641,0.920299649238586
"S129",0.465317590713501,2.1676824092865,"slow",0,2691,0.398978156661987,TRUE,97,0.693571984767914,-651.410400390625,-383.311584472656,-0.776815474033356
"S129",0.394529867553711,1.78837013244629,"fast",162,2853,0.399302001925659,TRUE,98,0.654268682003021,-661.483154296875,-115.61595916748,0.742793381214142
"S129",0.4078055934906,3.7751944065094,"slow",0,2853,0.398978156661987,TRUE,99,0.59033590555191,-370.156127929688,-364.305328369141,-0.283511698246002
"S129",0.451230709075928,2.96576929092407,"slow",0,2853,0.399302001925659,TRUE,100,0.405995100736618,-476.232666015625,-361.466583251953,-0.382198095321655
"S129",0.4341614697052,3.6157386302948,"slow",0,2853,0.399625847189331,TRUE,101,0.344132959842682,-759.99169921875,6.11309814453125,-0.882700860500336
"S129",0.427257579858398,1.1219425201416,"slow",0,2853,0.400579859515381,TRUE,102,0.452486515045166,-657.851745605469,-75.3701095581055,-0.545079588890076
"S129",0.433742435836792,1.88215756416321,"slow",0,2853,0.40153387184143,TRUE,103,0.487695813179016,325.786315917969,-433.606689453125,0.616075456142426
"S129",0.548045409448242,3.51785469055176,"slow",0,2853,0.40351672098999,TRUE,104,0.555144548416138,564.523315429688,38.3157768249512,-0.706735193729401
"S129",0.476156360299683,2.74064373970032,"slow",0,2853,0.40549957013855,TRUE,105,0.582485854625702,560.973327636719,-415.716003417969,-0.0876791179180145
"S129",0.424191860198975,3.99230813980103,"slow",0,2853,0.406315775544739,TRUE,106,0.583927750587463,-406.1494140625,-228.797210693359,0.164529427886009
"S129",0.578424230194092,2.60467576980591,"slow",0,2853,0.407131980950928,TRUE,107,0.574703335762024,-610.890319824219,-203.133651733398,0.199882701039314
"S129",0.602427970886231,1.44707202911377,"slow",0,2853,0.407468787220764,TRUE,108,0.496634781360626,-347.170715332031,79.6526565551758,-0.910179018974304
"S129",0.446572835540771,3.75352716445923,"slow",0,2853,0.4078055934906,TRUE,109,0.542934656143188,597.549194335938,-194.456314086914,-0.798951625823975
"S129",0.633318144552612,2.83328175544739,"slow",0,2853,0.408155912562561,TRUE,110,0.355601191520691,520.088012695312,-324.208129882812,0.85743772983551
"S129",0.819286067962647,1.41371393203735,"missed",0,2853,0.408506231634521,FALSE,110,0.699409306049347,-445.526031494141,-192.099319458008,-0.902359008789062
"S129",0.311493612997436,2.73760628700256,"fast",175,3028,0.408596707670593,TRUE,111,0.624262034893036,-432.162322998047,-77.4628143310547,0.968121945858002
"S129",0.39439729074707,3.33900260925293,"fast",163,3191,0.408506231634521,TRUE,112,0.619557440280914,-408.640655517578,-22.7611885070801,-0.78267228603363
"S129",0.759309187889099,1.0566908121109,"slow",0,0,0.408155912562561,TRUE,113,0.63729852437973,-654.512817382812,-96.0217208862305,0.438463658094406
"S129",0.289660965020752,1.97653913497925,"fast",179,179,0.408506231634521,TRUE,114,0.407395243644714,361.094543457031,1.25755310058594,0.787947416305542
"S129",0.307819142532348,2.24238085746765,"fast",176,355,0.408155912562561,TRUE,115,0.511366486549377,-559.00830078125,-233.076293945312,0.566321492195129
"S129",0.302489722497558,2.96341037750244,"fast",177,532,0.4078055934906,TRUE,116,0.390764951705933,-359.796173095703,-320.923217773438,0.267139285802841
"S129",0.379121768515014,2.32077813148499,"fast",165,697,0.407468787220764,TRUE,117,0.537037789821625,554.02978515625,-255.547027587891,-0.743076086044312
"S129",0.349031480734253,2.01726841926575,"fast",170,867,0.407131980950928,TRUE,118,0.56296694278717,660.574645996094,-93.5902786254883,0.91710102558136
"S129",0.406021376991272,1.11037862300873,"fast",161,1028,0.406315775544739,TRUE,119,0.473520040512085,-723.624938964844,-120.834533691406,-0.58078670501709
"S129",0.307932985632324,1.05776691436768,"fast",176,1204,0.406021376991272,TRUE,120,0.405800223350525,-642.851745605469,-33.9824676513672,-0.743076026439667
"S129",0.301744052314758,1.01465594768524,"fast",177,1381,0.405760473564911,TRUE,121,0.474347412586212,-503.607788085938,-35.5271759033203,-0.366405546665192
